onset	duration	trial_type	event_type	block	trial_total	trial_in_block	food_image_code	food_image_path	button_position	resp_position	resp_choice	choice_rt	resp_too_slow	sample	trigger
197.52734375	2	n/a	blockStart	1	n/a	n/a	n/a	n/a	n/a	n/a	n/a	n/a	n/a	101135	250
199.564453125	1	decision	trialStart	1	1	1	foodImage.78	FOODEEG_Images\0787.jpg	NY	Left	No	1.79711760000009	0	102178	251
200.615234375	2	decision	foodImageDisplay	1	1	1	foodImage.78	FOODEEG_Images\0787.jpg	NY	Left	No	1.79711760000009	0	102716	252
202.6796875	1.79711760000009	decision	choicePhaseStart	1	1	1	foodImage.78	FOODEEG_Images\0787.jpg	NY	Left	No	1.79711760000009	0	103773	253
204.46875	0	decision	response	1	1	1	foodImage.78	FOODEEG_Images\0787.jpg	NY	Left	No	1.79711760000009	0	104689	234
205.58203125	1	health	trialStart	1	2	2	foodImage.16	FOODEEG_Images\0196.jpg	NY	Right	Yes	1.01870819999976	0	105259	251
206.642578125	2	health	foodImageDisplay	1	2	2	foodImage.16	FOODEEG_Images\0196.jpg	NY	Right	Yes	1.01870819999976	0	105802	252
208.70703125	1.01870819999976	health	choicePhaseStart	1	2	2	foodImage.16	FOODEEG_Images\0196.jpg	NY	Right	Yes	1.01870819999976	0	106859	253
209.716796875	0	health	response	1	2	2	foodImage.16	FOODEEG_Images\0196.jpg	NY	Right	Yes	1.01870819999976	0	107376	235
210.76953125	1	taste	trialStart	1	3	3	foodImage.79	FOODEEG_Images\0794.jpg	NY	Right	Yes	0.956906000000345	0	107915	251
211.81640625	2	taste	foodImageDisplay	1	3	3	foodImage.79	FOODEEG_Images\0794.jpg	NY	Right	Yes	0.956906000000345	0	108451	252
213.880859375	0.956906000000345	taste	choicePhaseStart	1	3	3	foodImage.79	FOODEEG_Images\0794.jpg	NY	Right	Yes	0.956906000000345	0	109508	253
214.828125	0	taste	response	1	3	3	foodImage.79	FOODEEG_Images\0794.jpg	NY	Right	Yes	0.956906000000345	0	109993	235
215.873046875	1	taste	trialStart	1	4	4	foodImage.15	FOODEEG_Images\0189.jpg	NY	Left	No	1.6554855000004	0	110528	251
216.93359375	2	taste	foodImageDisplay	1	4	4	foodImage.15	FOODEEG_Images\0189.jpg	NY	Left	No	1.6554855000004	0	111071	252
218.998046875	1.6554855000004	taste	choicePhaseStart	1	4	4	foodImage.15	FOODEEG_Images\0189.jpg	NY	Left	No	1.6554855000004	0	112128	253
220.64453125	0	taste	response	1	4	4	foodImage.15	FOODEEG_Images\0189.jpg	NY	Left	No	1.6554855000004	0	112971	234
221.693359375	1	taste	trialStart	1	5	5	foodImage.53	FOODEEG_Images\0547.jpg	YN	Left	Yes	1.84523949999993	0	113508	251
222.75390625	2	taste	foodImageDisplay	1	5	5	foodImage.53	FOODEEG_Images\0547.jpg	YN	Left	Yes	1.84523949999993	0	114051	252
224.8203125	1.84523949999993	taste	choicePhaseStart	1	5	5	foodImage.53	FOODEEG_Images\0547.jpg	YN	Left	Yes	1.84523949999993	0	115109	253
226.66015625	0	taste	response	1	5	5	foodImage.53	FOODEEG_Images\0547.jpg	YN	Left	Yes	1.84523949999993	0	116051	234
227.7109375	1	taste	trialStart	1	6	6	foodImage.68	FOODEEG_Images\0685.jpg	YN	Left	Yes	1.30024690000027	0	116589	251
228.791015625	2	taste	foodImageDisplay	1	6	6	foodImage.68	FOODEEG_Images\0685.jpg	YN	Left	Yes	1.30024690000027	0	117142	252
230.857421875	1.30024690000027	taste	choicePhaseStart	1	6	6	foodImage.68	FOODEEG_Images\0685.jpg	YN	Left	Yes	1.30024690000027	0	118200	253
232.1484375	0	taste	response	1	6	6	foodImage.68	FOODEEG_Images\0685.jpg	YN	Left	Yes	1.30024690000027	0	118861	234
233.19140625	1	decision	trialStart	1	7	7	foodImage.34	FOODEEG_Images\0339.jpg	NY	Left	No	1.6007254000001	0	119395	251
234.25	2	decision	foodImageDisplay	1	7	7	foodImage.34	FOODEEG_Images\0339.jpg	NY	Left	No	1.6007254000001	0	119937	252
236.314453125	1.6007254000001	decision	choicePhaseStart	1	7	7	foodImage.34	FOODEEG_Images\0339.jpg	NY	Left	No	1.6007254000001	0	120994	253
237.908203125	0	decision	response	1	7	7	foodImage.34	FOODEEG_Images\0339.jpg	NY	Left	No	1.6007254000001	0	121810	234
238.958984375	1	decision	trialStart	1	8	8	foodImage.46	FOODEEG_Images\0479.jpg	YN	Left	Yes	1.92988270000023	0	122348	251
240.017578125	2	decision	foodImageDisplay	1	8	8	foodImage.46	FOODEEG_Images\0479.jpg	YN	Left	Yes	1.92988270000023	0	122890	252
242.08203125	1.92988270000023	decision	choicePhaseStart	1	8	8	foodImage.46	FOODEEG_Images\0479.jpg	YN	Left	Yes	1.92988270000023	0	123947	253
244.00390625	0	decision	response	1	8	8	foodImage.46	FOODEEG_Images\0479.jpg	YN	Left	Yes	1.92988270000023	0	124931	234
245.048828125	1	decision	trialStart	1	9	9	foodImage.11	FOODEEG_Images\0180.jpg	YN	Left	Yes	1.34489549999989	0	125466	251
246.10546875	2	decision	foodImageDisplay	1	9	9	foodImage.11	FOODEEG_Images\0180.jpg	YN	Left	Yes	1.34489549999989	0	126007	252
248.169921875	1.34489549999989	decision	choicePhaseStart	1	9	9	foodImage.11	FOODEEG_Images\0180.jpg	YN	Left	Yes	1.34489549999989	0	127064	253
249.5078125	0	decision	response	1	9	9	foodImage.11	FOODEEG_Images\0180.jpg	YN	Left	Yes	1.34489549999989	0	127749	234
250.55078125	1	health	trialStart	1	10	10	foodImage.96	FOODEEG_Images\0904.jpg	YN	Right	No	1.54897319999964	0	128283	251
251.595703125	2	health	foodImageDisplay	1	10	10	foodImage.96	FOODEEG_Images\0904.jpg	YN	Right	No	1.54897319999964	0	128818	252
253.66015625	1.54897319999964	health	choicePhaseStart	1	10	10	foodImage.96	FOODEEG_Images\0904.jpg	YN	Right	No	1.54897319999964	0	129875	253
255.203125	0	health	response	1	10	10	foodImage.96	FOODEEG_Images\0904.jpg	YN	Right	No	1.54897319999964	0	130665	235
256.24609375	1	decision	trialStart	1	11	11	foodImage.3	FOODEEG_Images\0046.jpg	NY	Left	No	1.55756199999996	0	131199	251
257.2890625	2	decision	foodImageDisplay	1	11	11	foodImage.3	FOODEEG_Images\0046.jpg	NY	Left	No	1.55756199999996	0	131733	252
259.357421875	1.55756199999996	decision	choicePhaseStart	1	11	11	foodImage.3	FOODEEG_Images\0046.jpg	NY	Left	No	1.55756199999996	0	132792	253
260.90625	0	decision	response	1	11	11	foodImage.3	FOODEEG_Images\0046.jpg	NY	Left	No	1.55756199999996	0	133585	234
261.947265625	1	health	trialStart	1	12	12	foodImage.25	FOODEEG_Images\0261.jpg	NY	Right	Yes	0.956486300000051	0	134118	251
262.98828125	2	health	foodImageDisplay	1	12	12	foodImage.25	FOODEEG_Images\0261.jpg	NY	Right	Yes	0.956486300000051	0	134651	252
265.0546875	0.956486300000051	health	choicePhaseStart	1	12	12	foodImage.25	FOODEEG_Images\0261.jpg	NY	Right	Yes	0.956486300000051	0	135709	253
266.001953125	0	health	response	1	12	12	foodImage.25	FOODEEG_Images\0261.jpg	NY	Right	Yes	0.956486300000051	0	136194	235
267.044921875	1	decision	trialStart	1	13	13	foodImage.75	FOODEEG_Images\0763.jpg	NY	Right	Yes	1.36365190000015	0	136728	251
268.111328125	2	decision	foodImageDisplay	1	13	13	foodImage.75	FOODEEG_Images\0763.jpg	NY	Right	Yes	1.36365190000015	0	137274	252
270.17578125	1.36365190000015	decision	choicePhaseStart	1	13	13	foodImage.75	FOODEEG_Images\0763.jpg	NY	Right	Yes	1.36365190000015	0	138331	253
271.53125	0	decision	response	1	13	13	foodImage.75	FOODEEG_Images\0763.jpg	NY	Right	Yes	1.36365190000015	0	139025	235
272.57421875	1	decision	trialStart	1	14	14	foodImage.2	FOODEEG_Images\0028.jpg	NY	Left	No	1.48531090000006	0	139559	251
273.6171875	2	decision	foodImageDisplay	1	14	14	foodImage.2	FOODEEG_Images\0028.jpg	NY	Left	No	1.48531090000006	0	140093	252
275.6875	1.48531090000006	decision	choicePhaseStart	1	14	14	foodImage.2	FOODEEG_Images\0028.jpg	NY	Left	No	1.48531090000006	0	141153	253
277.162109375	0	decision	response	1	14	14	foodImage.2	FOODEEG_Images\0028.jpg	NY	Left	No	1.48531090000006	0	141908	234
278.205078125	1	health	trialStart	1	15	15	foodImage.83	FOODEEG_Images\0827.jpg	NY	Right	Yes	0.857618099999854	0	142442	251
279.265625	2	health	foodImageDisplay	1	15	15	foodImage.83	FOODEEG_Images\0827.jpg	NY	Right	Yes	0.857618099999854	0	142985	252
281.328125	0.857618099999854	health	choicePhaseStart	1	15	15	foodImage.83	FOODEEG_Images\0827.jpg	NY	Right	Yes	0.857618099999854	0	144041	253
282.177734375	0	health	response	1	15	15	foodImage.83	FOODEEG_Images\0827.jpg	NY	Right	Yes	0.857618099999854	0	144476	235
283.220703125	1	health	trialStart	1	16	16	foodImage.71	FOODEEG_Images\0713.jpg	NY	Left	No	1.12901660000034	0	145010	251
284.263671875	2	health	foodImageDisplay	1	16	16	foodImage.71	FOODEEG_Images\0713.jpg	NY	Left	No	1.12901660000034	0	145544	252
286.328125	1.12901660000034	health	choicePhaseStart	1	16	16	foodImage.71	FOODEEG_Images\0713.jpg	NY	Left	No	1.12901660000034	0	146601	253
287.44921875	0	health	response	1	16	16	foodImage.71	FOODEEG_Images\0713.jpg	NY	Left	No	1.12901660000034	0	147175	234
288.49609375	1	health	trialStart	1	17	17	foodImage.6	FOODEEG_Images\0113.jpg	NY	Left	No	0.906584399999701	0	147711	251
289.5390625	2	health	foodImageDisplay	1	17	17	foodImage.6	FOODEEG_Images\0113.jpg	NY	Left	No	0.906584399999701	0	148245	252
291.60546875	0.906584399999701	health	choicePhaseStart	1	17	17	foodImage.6	FOODEEG_Images\0113.jpg	NY	Left	No	0.906584399999701	0	149303	253
292.505859375	0	health	response	1	17	17	foodImage.6	FOODEEG_Images\0113.jpg	NY	Left	No	0.906584399999701	0	149764	234
293.548828125	1	health	trialStart	1	18	18	foodImage.94	FOODEEG_Images\0902.jpg	YN	Right	No	2.75301789999958	0	150298	251
294.58984375	2	health	foodImageDisplay	1	18	18	foodImage.94	FOODEEG_Images\0902.jpg	YN	Right	No	2.75301789999958	0	150831	252
296.658203125	2.75301789999958	health	choicePhaseStart	1	18	18	foodImage.94	FOODEEG_Images\0902.jpg	YN	Right	No	2.75301789999958	0	151890	253
299.400390625	0	health	response	1	18	18	foodImage.94	FOODEEG_Images\0902.jpg	YN	Right	No	2.75301789999958	0	153294	235
300.4453125	1	health	trialStart	1	19	19	foodImage.10	FOODEEG_Images\0145.jpg	YN	Right	No	2.13896169999998	0	153829	251
301.50390625	2	health	foodImageDisplay	1	19	19	foodImage.10	FOODEEG_Images\0145.jpg	YN	Right	No	2.13896169999998	0	154371	252
303.568359375	2.13896169999998	health	choicePhaseStart	1	19	19	foodImage.10	FOODEEG_Images\0145.jpg	YN	Right	No	2.13896169999998	0	155428	253
305.697265625	0	health	response	1	19	19	foodImage.10	FOODEEG_Images\0145.jpg	YN	Right	No	2.13896169999998	0	156518	235
306.740234375	1	taste	trialStart	1	20	20	foodImage.105	FOODEEG_Images\0913.jpg	NY	Right	Yes	1.68242700000019	0	157052	251
307.78125	2	taste	foodImageDisplay	1	20	20	foodImage.105	FOODEEG_Images\0913.jpg	NY	Right	Yes	1.68242700000019	0	157585	252
309.845703125	1.68242700000019	taste	choicePhaseStart	1	20	20	foodImage.105	FOODEEG_Images\0913.jpg	NY	Right	Yes	1.68242700000019	0	158642	253
311.521484375	0	taste	response	1	20	20	foodImage.105	FOODEEG_Images\0913.jpg	NY	Right	Yes	1.68242700000019	0	159500	235
312.564453125	1	taste	trialStart	1	21	21	foodImage.78	FOODEEG_Images\0787.jpg	NY	Left	No	1.51353160000008	0	160034	251
313.6171875	2	taste	foodImageDisplay	1	21	21	foodImage.78	FOODEEG_Images\0787.jpg	NY	Left	No	1.51353160000008	0	160573	252
315.6796875	1.51353160000008	taste	choicePhaseStart	1	21	21	foodImage.78	FOODEEG_Images\0787.jpg	NY	Left	No	1.51353160000008	0	161629	253
317.18359375	0	taste	response	1	21	21	foodImage.78	FOODEEG_Images\0787.jpg	NY	Left	No	1.51353160000008	0	162399	234
318.2265625	1	health	trialStart	1	22	22	foodImage.75	FOODEEG_Images\0763.jpg	NY	Right	Yes	1.17758019999974	0	162933	251
319.271484375	2	health	foodImageDisplay	1	22	22	foodImage.75	FOODEEG_Images\0763.jpg	NY	Right	Yes	1.17758019999974	0	163468	252
321.3359375	1.17758019999974	health	choicePhaseStart	1	22	22	foodImage.75	FOODEEG_Images\0763.jpg	NY	Right	Yes	1.17758019999974	0	164525	253
322.50390625	0	health	response	1	22	22	foodImage.75	FOODEEG_Images\0763.jpg	NY	Right	Yes	1.17758019999974	0	165123	235
323.546875	1	taste	trialStart	1	23	23	foodImage.9	FOODEEG_Images\0138.jpg	YN	Left	Yes	1.52910840000004	0	165657	251
324.607421875	2	taste	foodImageDisplay	1	23	23	foodImage.9	FOODEEG_Images\0138.jpg	YN	Left	Yes	1.52910840000004	0	166200	252
326.671875	1.52910840000004	taste	choicePhaseStart	1	23	23	foodImage.9	FOODEEG_Images\0138.jpg	YN	Left	Yes	1.52910840000004	0	167257	253
328.19140625	0	taste	response	1	23	23	foodImage.9	FOODEEG_Images\0138.jpg	YN	Left	Yes	1.52910840000004	0	168035	234
329.234375	1	health	trialStart	1	24	24	foodImage.14	FOODEEG_Images\0188.jpg	NY	Left	No	1.26550999999972	0	168569	251
330.294921875	2	health	foodImageDisplay	1	24	24	foodImage.14	FOODEEG_Images\0188.jpg	NY	Left	No	1.26550999999972	0	169112	252
332.359375	1.26550999999972	health	choicePhaseStart	1	24	24	foodImage.14	FOODEEG_Images\0188.jpg	NY	Left	No	1.26550999999972	0	170169	253
333.615234375	0	health	response	1	24	24	foodImage.14	FOODEEG_Images\0188.jpg	NY	Left	No	1.26550999999972	0	170812	234
334.658203125	1	taste	trialStart	1	25	25	foodImage.34	FOODEEG_Images\0339.jpg	YN	Right	No	1.73332540000001	0	171346	251
335.71484375	2	taste	foodImageDisplay	1	25	25	foodImage.34	FOODEEG_Images\0339.jpg	YN	Right	No	1.73332540000001	0	171887	252
337.779296875	1.73332540000001	taste	choicePhaseStart	1	25	25	foodImage.34	FOODEEG_Images\0339.jpg	YN	Right	No	1.73332540000001	0	172944	253
339.50390625	0	taste	response	1	25	25	foodImage.34	FOODEEG_Images\0339.jpg	YN	Right	No	1.73332540000001	0	173827	235
340.546875	1	taste	trialStart	1	26	26	foodImage.86	FOODEEG_Images\0844.jpg	YN	Left	Yes	1.67254529999991	0	174361	251
341.607421875	2	taste	foodImageDisplay	1	26	26	foodImage.86	FOODEEG_Images\0844.jpg	YN	Left	Yes	1.67254529999991	0	174904	252
343.669921875	1.67254529999991	taste	choicePhaseStart	1	26	26	foodImage.86	FOODEEG_Images\0844.jpg	YN	Left	Yes	1.67254529999991	0	175960	253
345.3359375	0	taste	response	1	26	26	foodImage.86	FOODEEG_Images\0844.jpg	YN	Left	Yes	1.67254529999991	0	176813	234
346.37890625	1	health	trialStart	1	27	27	foodImage.15	FOODEEG_Images\0189.jpg	YN	Right	No	1.19671080000035	0	177347	251
347.435546875	2	health	foodImageDisplay	1	27	27	foodImage.15	FOODEEG_Images\0189.jpg	YN	Right	No	1.19671080000035	0	177888	252
349.5	1.19671080000035	health	choicePhaseStart	1	27	27	foodImage.15	FOODEEG_Images\0189.jpg	YN	Right	No	1.19671080000035	0	178945	253
350.6875	0	health	response	1	27	27	foodImage.15	FOODEEG_Images\0189.jpg	YN	Right	No	1.19671080000035	0	179553	235
351.73046875	1	decision	trialStart	1	28	28	foodImage.110	FOODEEG_Images\0918.jpg	YN	Right	No	1.58134500000006	0	180087	251
352.771484375	2	decision	foodImageDisplay	1	28	28	foodImage.110	FOODEEG_Images\0918.jpg	YN	Right	No	1.58134500000006	0	180620	252
354.833984375	1.58134500000006	decision	choicePhaseStart	1	28	28	foodImage.110	FOODEEG_Images\0918.jpg	YN	Right	No	1.58134500000006	0	181676	253
356.40625	0	decision	response	1	28	28	foodImage.110	FOODEEG_Images\0918.jpg	YN	Right	No	1.58134500000006	0	182481	235
357.451171875	1	decision	trialStart	1	29	29	foodImage.114	FOODEEG_Images\0922.jpg	YN	Right	No	1.15053579999994	0	183016	251
358.48828125	2	decision	foodImageDisplay	1	29	29	foodImage.114	FOODEEG_Images\0922.jpg	YN	Right	No	1.15053579999994	0	183547	252
360.552734375	1.15053579999994	decision	choicePhaseStart	1	29	29	foodImage.114	FOODEEG_Images\0922.jpg	YN	Right	No	1.15053579999994	0	184604	253
361.6953125	0	decision	response	1	29	29	foodImage.114	FOODEEG_Images\0922.jpg	YN	Right	No	1.15053579999994	0	185189	235
362.740234375	1	taste	trialStart	1	30	30	foodImage.96	FOODEEG_Images\0904.jpg	YN	Right	No	1.57087129999991	0	185724	251
363.779296875	2	taste	foodImageDisplay	1	30	30	foodImage.96	FOODEEG_Images\0904.jpg	YN	Right	No	1.57087129999991	0	186256	252
365.841796875	1.57087129999991	taste	choicePhaseStart	1	30	30	foodImage.96	FOODEEG_Images\0904.jpg	YN	Right	No	1.57087129999991	0	187312	253
367.40625	0	taste	response	1	30	30	foodImage.96	FOODEEG_Images\0904.jpg	YN	Right	No	1.57087129999991	0	188113	235
368.44921875	1	taste	trialStart	1	31	31	foodImage.111	FOODEEG_Images\0919.jpg	NY	Left	No	1.66568000000007	0	188647	251
369.486328125	2	taste	foodImageDisplay	1	31	31	foodImage.111	FOODEEG_Images\0919.jpg	NY	Left	No	1.66568000000007	0	189178	252
371.55078125	1.66568000000007	taste	choicePhaseStart	1	31	31	foodImage.111	FOODEEG_Images\0919.jpg	NY	Left	No	1.66568000000007	0	190235	253
373.20703125	0	taste	response	1	31	31	foodImage.111	FOODEEG_Images\0919.jpg	NY	Left	No	1.66568000000007	0	191083	234
374.25	1	health	trialStart	1	32	32	foodImage.57	FOODEEG_Images\0587.jpg	NY	Left	No	2.46499129999984	0	191617	251
375.294921875	2	health	foodImageDisplay	1	32	32	foodImage.57	FOODEEG_Images\0587.jpg	NY	Left	No	2.46499129999984	0	192152	252
377.357421875	2.46499129999984	health	choicePhaseStart	1	32	32	foodImage.57	FOODEEG_Images\0587.jpg	NY	Left	No	2.46499129999984	0	193208	253
379.814453125	0	health	response	1	32	32	foodImage.57	FOODEEG_Images\0587.jpg	NY	Left	No	2.46499129999984	0	194466	234
380.857421875	1	decision	trialStart	1	33	33	foodImage.7	FOODEEG_Images\0116.jpg	NY	Left	No	1.47281019999991	0	195000	251
381.90234375	2	decision	foodImageDisplay	1	33	33	foodImage.7	FOODEEG_Images\0116.jpg	NY	Left	No	1.47281019999991	0	195535	252
383.96484375	1.47281019999991	decision	choicePhaseStart	1	33	33	foodImage.7	FOODEEG_Images\0116.jpg	NY	Left	No	1.47281019999991	0	196591	253
385.4296875	0	decision	response	1	33	33	foodImage.7	FOODEEG_Images\0116.jpg	NY	Left	No	1.47281019999991	0	197341	234
386.478515625	1	taste	trialStart	1	34	34	foodImage.25	FOODEEG_Images\0261.jpg	NY	Left	No	1.71707359999982	0	197878	251
387.521484375	2	taste	foodImageDisplay	1	34	34	foodImage.25	FOODEEG_Images\0261.jpg	NY	Left	No	1.71707359999982	0	198412	252
389.5859375	1.71707359999982	taste	choicePhaseStart	1	34	34	foodImage.25	FOODEEG_Images\0261.jpg	NY	Left	No	1.71707359999982	0	199469	253
391.29296875	0	taste	response	1	34	34	foodImage.25	FOODEEG_Images\0261.jpg	NY	Left	No	1.71707359999982	0	200343	234
392.337890625	1	decision	trialStart	1	35	35	foodImage.94	FOODEEG_Images\0902.jpg	YN	Right	No	1.51131830000031	0	200878	251
393.375	2	decision	foodImageDisplay	1	35	35	foodImage.94	FOODEEG_Images\0902.jpg	YN	Right	No	1.51131830000031	0	201409	252
395.439453125	1.51131830000031	decision	choicePhaseStart	1	35	35	foodImage.94	FOODEEG_Images\0902.jpg	YN	Right	No	1.51131830000031	0	202466	253
396.94140625	0	decision	response	1	35	35	foodImage.94	FOODEEG_Images\0902.jpg	YN	Right	No	1.51131830000031	0	203235	235
397.984375	1	health	trialStart	1	36	36	foodImage.74	FOODEEG_Images\0752.jpg	YN	Left	Yes	1.22228660000019	0	203769	251
399.029296875	2	health	foodImageDisplay	1	36	36	foodImage.74	FOODEEG_Images\0752.jpg	YN	Left	Yes	1.22228660000019	0	204304	252
401.095703125	1.22228660000019	health	choicePhaseStart	1	36	36	foodImage.74	FOODEEG_Images\0752.jpg	YN	Left	Yes	1.22228660000019	0	205362	253
402.30859375	0	health	response	1	36	36	foodImage.74	FOODEEG_Images\0752.jpg	YN	Left	Yes	1.22228660000019	0	205983	234
403.357421875	1	taste	trialStart	1	37	37	foodImage.13	FOODEEG_Images\0183.jpg	YN	Left	Yes	2.37968139999975	0	206520	251
404.400390625	2	taste	foodImageDisplay	1	37	37	foodImage.13	FOODEEG_Images\0183.jpg	YN	Left	Yes	2.37968139999975	0	207054	252
406.46484375	2.37968139999975	taste	choicePhaseStart	1	37	37	foodImage.13	FOODEEG_Images\0183.jpg	YN	Left	Yes	2.37968139999975	0	208111	253
408.8359375	0	taste	response	1	37	37	foodImage.13	FOODEEG_Images\0183.jpg	YN	Left	Yes	2.37968139999975	0	209325	234
409.880859375	1	taste	trialStart	1	38	38	foodImage.75	FOODEEG_Images\0763.jpg	YN	Right	No	1.97068479999962	0	209860	251
410.923828125	2	taste	foodImageDisplay	1	38	38	foodImage.75	FOODEEG_Images\0763.jpg	YN	Right	No	1.97068479999962	0	210394	252
412.98828125	1.97068479999962	taste	choicePhaseStart	1	38	38	foodImage.75	FOODEEG_Images\0763.jpg	YN	Right	No	1.97068479999962	0	211451	253
414.94921875	0	taste	response	1	38	38	foodImage.75	FOODEEG_Images\0763.jpg	YN	Right	No	1.97068479999962	0	212455	235
415.9921875	1	decision	trialStart	1	39	39	foodImage.1	FOODEEG_Images\0004.jpg	NY	Left	No	1.57707560000017	0	212989	251
417.037109375	2	decision	foodImageDisplay	1	39	39	foodImage.1	FOODEEG_Images\0004.jpg	NY	Left	No	1.57707560000017	0	213524	252
419.099609375	1.57707560000017	decision	choicePhaseStart	1	39	39	foodImage.1	FOODEEG_Images\0004.jpg	NY	Left	No	1.57707560000017	0	214580	253
420.66796875	0	decision	response	1	39	39	foodImage.1	FOODEEG_Images\0004.jpg	NY	Left	No	1.57707560000017	0	215383	234
421.7109375	1	taste	trialStart	1	40	40	foodImage.18	FOODEEG_Images\0202.jpg	YN	Left	Yes	1.3055116000005	0	215917	251
422.7734375	2	taste	foodImageDisplay	1	40	40	foodImage.18	FOODEEG_Images\0202.jpg	YN	Left	Yes	1.3055116000005	0	216461	252
424.8359375	1.3055116000005	taste	choicePhaseStart	1	40	40	foodImage.18	FOODEEG_Images\0202.jpg	YN	Left	Yes	1.3055116000005	0	217517	253
426.1328125	0	taste	response	1	40	40	foodImage.18	FOODEEG_Images\0202.jpg	YN	Left	Yes	1.3055116000005	0	218181	234
427.173828125	1	taste	trialStart	1	41	41	foodImage.28	FOODEEG_Images\0273.jpg	YN	Right	No	1.60312950000025	0	218714	251
428.216796875	2	taste	foodImageDisplay	1	41	41	foodImage.28	FOODEEG_Images\0273.jpg	YN	Right	No	1.60312950000025	0	219248	252
430.28125	1.60312950000025	taste	choicePhaseStart	1	41	41	foodImage.28	FOODEEG_Images\0273.jpg	YN	Right	No	1.60312950000025	0	220305	253
431.875	0	taste	response	1	41	41	foodImage.28	FOODEEG_Images\0273.jpg	YN	Right	No	1.60312950000025	0	221121	235
432.923828125	1	taste	trialStart	1	42	42	foodImage.45	FOODEEG_Images\0478.jpg	NY	Right	Yes	2.97836060000009	0	221658	251
433.970703125	2	taste	foodImageDisplay	1	42	42	foodImage.45	FOODEEG_Images\0478.jpg	NY	Right	Yes	2.97836060000009	0	222194	252
436.03515625	2.97836060000009	taste	choicePhaseStart	1	42	42	foodImage.45	FOODEEG_Images\0478.jpg	NY	Right	Yes	2.97836060000009	0	223251	253
439.00390625	0	taste	response	1	42	42	foodImage.45	FOODEEG_Images\0478.jpg	NY	Right	Yes	2.97836060000009	0	224771	235
440.046875	1	health	trialStart	1	43	43	foodImage.33	FOODEEG_Images\0329.jpg	YN	Left	Yes	1.06679099999928	0	225305	251
441.08984375	2	health	foodImageDisplay	1	43	43	foodImage.33	FOODEEG_Images\0329.jpg	YN	Left	Yes	1.06679099999928	0	225839	252
443.154296875	1.06679099999928	health	choicePhaseStart	1	43	43	foodImage.33	FOODEEG_Images\0329.jpg	YN	Left	Yes	1.06679099999928	0	226896	253
444.2109375	0	health	response	1	43	43	foodImage.33	FOODEEG_Images\0329.jpg	YN	Left	Yes	1.06679099999928	0	227437	234
445.25390625	1	health	trialStart	1	44	44	foodImage.4	FOODEEG_Images\0065.jpg	NY	Left	No	1.16511529999934	0	227971	251
446.3125	2	health	foodImageDisplay	1	44	44	foodImage.4	FOODEEG_Images\0065.jpg	NY	Left	No	1.16511529999934	0	228513	252
448.380859375	1.16511529999934	health	choicePhaseStart	1	44	44	foodImage.4	FOODEEG_Images\0065.jpg	NY	Left	No	1.16511529999934	0	229572	253
449.5390625	0	health	response	1	44	44	foodImage.4	FOODEEG_Images\0065.jpg	NY	Left	No	1.16511529999934	0	230165	234
450.58203125	1	health	trialStart	1	45	45	foodImage.26	FOODEEG_Images\0262.jpg	YN	Left	Yes	2.31115399999999	0	230699	251
451.625	2	health	foodImageDisplay	1	45	45	foodImage.26	FOODEEG_Images\0262.jpg	YN	Left	Yes	2.31115399999999	0	231233	252
453.693359375	2.31115399999999	health	choicePhaseStart	1	45	45	foodImage.26	FOODEEG_Images\0262.jpg	YN	Left	Yes	2.31115399999999	0	232292	253
455.994140625	0	health	response	1	45	45	foodImage.26	FOODEEG_Images\0262.jpg	YN	Left	Yes	2.31115399999999	0	233470	234
457.0390625	1	decision	trialStart	1	46	46	foodImage.72	FOODEEG_Images\0714.jpg	NY	Left	No	1.16965479999999	0	234005	251
458.08203125	2	decision	foodImageDisplay	1	46	46	foodImage.72	FOODEEG_Images\0714.jpg	NY	Left	No	1.16965479999999	0	234539	252
460.146484375	1.16965479999999	decision	choicePhaseStart	1	46	46	foodImage.72	FOODEEG_Images\0714.jpg	NY	Left	No	1.16965479999999	0	235596	253
461.306640625	0	decision	response	1	46	46	foodImage.72	FOODEEG_Images\0714.jpg	NY	Left	No	1.16965479999999	0	236190	234
462.349609375	1	taste	trialStart	1	47	47	foodImage.22	FOODEEG_Images\0236.jpg	YN	Left	Yes	1.34046070000022	0	236724	251
463.392578125	2	taste	foodImageDisplay	1	47	47	foodImage.22	FOODEEG_Images\0236.jpg	YN	Left	Yes	1.34046070000022	0	237258	252
465.455078125	1.34046070000022	taste	choicePhaseStart	1	47	47	foodImage.22	FOODEEG_Images\0236.jpg	YN	Left	Yes	1.34046070000022	0	238314	253
466.787109375	0	taste	response	1	47	47	foodImage.22	FOODEEG_Images\0236.jpg	YN	Left	Yes	1.34046070000022	0	238996	234
467.830078125	1	health	trialStart	1	48	48	foodImage.32	FOODEEG_Images\0319.jpg	NY	Right	Yes	1.67986550000023	0	239530	251
468.875	2	health	foodImageDisplay	1	48	48	foodImage.32	FOODEEG_Images\0319.jpg	NY	Right	Yes	1.67986550000023	0	240065	252
470.939453125	1.67986550000023	health	choicePhaseStart	1	48	48	foodImage.32	FOODEEG_Images\0319.jpg	NY	Right	Yes	1.67986550000023	0	241122	253
472.611328125	0	health	response	1	48	48	foodImage.32	FOODEEG_Images\0319.jpg	NY	Right	Yes	1.67986550000023	0	241978	235
473.65234375	1	health	trialStart	1	49	49	foodImage.40	FOODEEG_Images\0373.jpg	NY	Left	No	1.19179379999969	0	242511	251
474.6953125	2	health	foodImageDisplay	1	49	49	foodImage.40	FOODEEG_Images\0373.jpg	NY	Left	No	1.19179379999969	0	243045	252
476.763671875	1.19179379999969	health	choicePhaseStart	1	49	49	foodImage.40	FOODEEG_Images\0373.jpg	NY	Left	No	1.19179379999969	0	244104	253
477.9453125	0	health	response	1	49	49	foodImage.40	FOODEEG_Images\0373.jpg	NY	Left	No	1.19179379999969	0	244709	234
478.98828125	1	taste	trialStart	1	50	50	foodImage.36	FOODEEG_Images\0352.jpg	NY	Right	Yes	1.15827699999954	0	245243	251
480.05078125	2	taste	foodImageDisplay	1	50	50	foodImage.36	FOODEEG_Images\0352.jpg	NY	Right	Yes	1.15827699999954	0	245787	252
482.11328125	1.15827699999954	taste	choicePhaseStart	1	50	50	foodImage.36	FOODEEG_Images\0352.jpg	NY	Right	Yes	1.15827699999954	0	246843	253
483.265625	0	taste	response	1	50	50	foodImage.36	FOODEEG_Images\0352.jpg	NY	Right	Yes	1.15827699999954	0	247433	235
484.30859375	1	health	trialStart	1	51	51	foodImage.52	FOODEEG_Images\0539.jpg	NY	Right	Yes	0.9393383000006	0	247967	251
485.369140625	2	health	foodImageDisplay	1	51	51	foodImage.52	FOODEEG_Images\0539.jpg	NY	Right	Yes	0.9393383000006	0	248510	252
487.431640625	0.9393383000006	health	choicePhaseStart	1	51	51	foodImage.52	FOODEEG_Images\0539.jpg	NY	Right	Yes	0.9393383000006	0	249566	253
488.361328125	0	health	response	1	51	51	foodImage.52	FOODEEG_Images\0539.jpg	NY	Right	Yes	0.9393383000006	0	250042	235
489.404296875	1	health	trialStart	1	52	52	foodImage.97	FOODEEG_Images\0905.jpg	NY	Left	No	1.57875729999978	0	250576	251
490.44140625	2	health	foodImageDisplay	1	52	52	foodImage.97	FOODEEG_Images\0905.jpg	NY	Left	No	1.57875729999978	0	251107	252
492.51171875	1.57875729999978	health	choicePhaseStart	1	52	52	foodImage.97	FOODEEG_Images\0905.jpg	NY	Left	No	1.57875729999978	0	252167	253
494.08203125	0	health	response	1	52	52	foodImage.97	FOODEEG_Images\0905.jpg	NY	Left	No	1.57875729999978	0	252971	234
495.125	1	health	trialStart	1	53	53	foodImage.109	FOODEEG_Images\0917.jpg	NY	Left	No	1.83036230000016	0	253505	251
496.1640625	2	health	foodImageDisplay	1	53	53	foodImage.109	FOODEEG_Images\0917.jpg	NY	Left	No	1.83036230000016	0	254037	252
498.228515625	1.83036230000016	health	choicePhaseStart	1	53	53	foodImage.109	FOODEEG_Images\0917.jpg	NY	Left	No	1.83036230000016	0	255094	253
500.048828125	0	health	response	1	53	53	foodImage.109	FOODEEG_Images\0917.jpg	NY	Left	No	1.83036230000016	0	256026	234
501.091796875	1	health	trialStart	1	54	54	foodImage.117	FOODEEG_Images\0925.jpg	NY	Left	No	1.08747909999965	0	256560	251
502.130859375	2	health	foodImageDisplay	1	54	54	foodImage.117	FOODEEG_Images\0925.jpg	NY	Left	No	1.08747909999965	0	257092	252
504.1953125	1.08747909999965	health	choicePhaseStart	1	54	54	foodImage.117	FOODEEG_Images\0925.jpg	NY	Left	No	1.08747909999965	0	258149	253
505.2734375	0	health	response	1	54	54	foodImage.117	FOODEEG_Images\0925.jpg	NY	Left	No	1.08747909999965	0	258701	234
506.31640625	1	taste	trialStart	1	55	55	foodImage.110	FOODEEG_Images\0918.jpg	YN	Right	No	1.63150239999959	0	259235	251
507.35546875	2	taste	foodImageDisplay	1	55	55	foodImage.110	FOODEEG_Images\0918.jpg	YN	Right	No	1.63150239999959	0	259767	252
509.41796875	1.63150239999959	taste	choicePhaseStart	1	55	55	foodImage.110	FOODEEG_Images\0918.jpg	YN	Right	No	1.63150239999959	0	260823	253
511.041015625	0	taste	response	1	55	55	foodImage.110	FOODEEG_Images\0918.jpg	YN	Right	No	1.63150239999959	0	261654	235
512.083984375	1	taste	trialStart	1	56	56	foodImage.98	FOODEEG_Images\0906.jpg	YN	Right	No	1.97542489999978	0	262188	251
513.12890625	2	taste	foodImageDisplay	1	56	56	foodImage.98	FOODEEG_Images\0906.jpg	YN	Right	No	1.97542489999978	0	262723	252
515.193359375	1.97542489999978	taste	choicePhaseStart	1	56	56	foodImage.98	FOODEEG_Images\0906.jpg	YN	Right	No	1.97542489999978	0	263780	253
517.16015625	0	taste	response	1	56	56	foodImage.98	FOODEEG_Images\0906.jpg	YN	Right	No	1.97542489999978	0	264787	235
518.205078125	1	decision	trialStart	1	57	57	foodImage.89	FOODEEG_Images\0881.jpg	YN	Left	Yes	1.16505430000052	0	265322	251
519.26953125	2	decision	foodImageDisplay	1	57	57	foodImage.89	FOODEEG_Images\0881.jpg	YN	Left	Yes	1.16505430000052	0	265867	252
521.33203125	1.16505430000052	decision	choicePhaseStart	1	57	57	foodImage.89	FOODEEG_Images\0881.jpg	YN	Left	Yes	1.16505430000052	0	266923	253
522.48828125	0	decision	response	1	57	57	foodImage.89	FOODEEG_Images\0881.jpg	YN	Left	Yes	1.16505430000052	0	267515	234
523.53125	1	decision	trialStart	1	58	58	foodImage.98	FOODEEG_Images\0906.jpg	NY	Left	No	1.12741849999929	0	268049	251
524.5703125	2	decision	foodImageDisplay	1	58	58	foodImage.98	FOODEEG_Images\0906.jpg	NY	Left	No	1.12741849999929	0	268581	252
526.634765625	1.12741849999929	decision	choicePhaseStart	1	58	58	foodImage.98	FOODEEG_Images\0906.jpg	NY	Left	No	1.12741849999929	0	269638	253
527.751953125	0	decision	response	1	58	58	foodImage.98	FOODEEG_Images\0906.jpg	NY	Left	No	1.12741849999929	0	270210	234
528.794921875	1	decision	trialStart	1	59	59	foodImage.93	FOODEEG_Images\0901.jpg	NY	Left	No	1.1708148000007	0	270744	251
529.833984375	2	decision	foodImageDisplay	1	59	59	foodImage.93	FOODEEG_Images\0901.jpg	NY	Left	No	1.1708148000007	0	271276	252
531.900390625	1.1708148000007	decision	choicePhaseStart	1	59	59	foodImage.93	FOODEEG_Images\0901.jpg	NY	Left	No	1.1708148000007	0	272334	253
533.064453125	0	decision	response	1	59	59	foodImage.93	FOODEEG_Images\0901.jpg	NY	Left	No	1.1708148000007	0	272930	234
534.107421875	1	health	trialStart	1	60	60	foodImage.22	FOODEEG_Images\0236.jpg	YN	Right	No	2.18164839999918	0	273464	251
535.1484375	2	health	foodImageDisplay	1	60	60	foodImage.22	FOODEEG_Images\0236.jpg	YN	Right	No	2.18164839999918	0	273997	252
537.2109375	2.18164839999918	health	choicePhaseStart	1	60	60	foodImage.22	FOODEEG_Images\0236.jpg	YN	Right	No	2.18164839999918	0	275053	253
539.3828125	0	health	response	1	60	60	foodImage.22	FOODEEG_Images\0236.jpg	YN	Right	No	2.18164839999918	0	276165	235
541.431640625	4.09375	n/a	blockEnd	n/a	n/a	n/a	n/a	n/a	n/a	n/a	n/a	n/a	n/a	277214	254
545.525390625	2	n/a	blockStart	2	n/a	n/a	n/a	n/a	n/a	n/a	n/a	n/a	n/a	279310	250
547.55859375	1	decision	trialStart	2	61	1	foodImage.59	FOODEEG_Images\0607.jpg	NY	Left	No	1.49459649999972	0	280351	251
548.609375	2	decision	foodImageDisplay	2	61	1	foodImage.59	FOODEEG_Images\0607.jpg	NY	Left	No	1.49459649999972	0	280889	252
550.673828125	1.49459649999972	decision	choicePhaseStart	2	61	1	foodImage.59	FOODEEG_Images\0607.jpg	NY	Left	No	1.49459649999972	0	281946	253
552.158203125	0	decision	response	2	61	1	foodImage.59	FOODEEG_Images\0607.jpg	NY	Left	No	1.49459649999972	0	282706	234
553.203125	1	decision	trialStart	2	62	2	foodImage.43	FOODEEG_Images\0445.jpg	YN	Right	No	1.37989939999989	0	283241	251
554.26171875	2	decision	foodImageDisplay	2	62	2	foodImage.43	FOODEEG_Images\0445.jpg	YN	Right	No	1.37989939999989	0	283783	252
556.32421875	1.37989939999989	decision	choicePhaseStart	2	62	2	foodImage.43	FOODEEG_Images\0445.jpg	YN	Right	No	1.37989939999989	0	284839	253
557.6953125	0	decision	response	2	62	2	foodImage.43	FOODEEG_Images\0445.jpg	YN	Right	No	1.37989939999989	0	285541	235
558.73828125	1	decision	trialStart	2	63	3	foodImage.17	FOODEEG_Images\0199.jpg	YN	Left	Yes	1.26497120000022	0	286075	251
559.78125	2	decision	foodImageDisplay	2	63	3	foodImage.17	FOODEEG_Images\0199.jpg	YN	Left	Yes	1.26497120000022	0	286609	252
561.845703125	1.26497120000022	decision	choicePhaseStart	2	63	3	foodImage.17	FOODEEG_Images\0199.jpg	YN	Left	Yes	1.26497120000022	0	287666	253
563.103515625	0	decision	response	2	63	3	foodImage.17	FOODEEG_Images\0199.jpg	YN	Left	Yes	1.26497120000022	0	288310	234
564.142578125	1	decision	trialStart	2	64	4	foodImage.25	FOODEEG_Images\0261.jpg	NY	Left	No	1.32626660000005	0	288842	251
565.185546875	2	decision	foodImageDisplay	2	64	4	foodImage.25	FOODEEG_Images\0261.jpg	NY	Left	No	1.32626660000005	0	289376	252
567.25	1.32626660000005	decision	choicePhaseStart	2	64	4	foodImage.25	FOODEEG_Images\0261.jpg	NY	Left	No	1.32626660000005	0	290433	253
568.56640625	0	decision	response	2	64	4	foodImage.25	FOODEEG_Images\0261.jpg	NY	Left	No	1.32626660000005	0	291107	234
569.609375	1	health	trialStart	2	65	5	foodImage.76	FOODEEG_Images\0766.jpg	NY	Right	Yes	0.92709560000003	0	291641	251
570.65625	2	health	foodImageDisplay	2	65	5	foodImage.76	FOODEEG_Images\0766.jpg	NY	Right	Yes	0.92709560000003	0	292177	252
572.720703125	0.92709560000003	health	choicePhaseStart	2	65	5	foodImage.76	FOODEEG_Images\0766.jpg	NY	Right	Yes	0.92709560000003	0	293234	253
573.638671875	0	health	response	2	65	5	foodImage.76	FOODEEG_Images\0766.jpg	NY	Right	Yes	0.92709560000003	0	293704	235
574.681640625	1	taste	trialStart	2	66	6	foodImage.37	FOODEEG_Images\0359.jpg	NY	Left	No	1.1309640999998	0	294238	251
575.724609375	2	taste	foodImageDisplay	2	66	6	foodImage.37	FOODEEG_Images\0359.jpg	NY	Left	No	1.1309640999998	0	294772	252
577.787109375	1.1309640999998	taste	choicePhaseStart	2	66	6	foodImage.37	FOODEEG_Images\0359.jpg	NY	Left	No	1.1309640999998	0	295828	253
578.91015625	0	taste	response	2	66	6	foodImage.37	FOODEEG_Images\0359.jpg	NY	Left	No	1.1309640999998	0	296403	234
579.958984375	1	decision	trialStart	2	67	7	foodImage.115	FOODEEG_Images\0923.jpg	NY	Left	No	1.15059689999998	0	296940	251
580.998046875	2	decision	foodImageDisplay	2	67	7	foodImage.115	FOODEEG_Images\0923.jpg	NY	Left	No	1.15059689999998	0	297472	252
583.0625	1.15059689999998	decision	choicePhaseStart	2	67	7	foodImage.115	FOODEEG_Images\0923.jpg	NY	Left	No	1.15059689999998	0	298529	253
584.205078125	0	decision	response	2	67	7	foodImage.115	FOODEEG_Images\0923.jpg	NY	Left	No	1.15059689999998	0	299114	234
585.25	1	decision	trialStart	2	68	8	foodImage.85	FOODEEG_Images\0841.jpg	YN	Right	No	1.27751040000021	0	299649	251
586.3046875	2	decision	foodImageDisplay	2	68	8	foodImage.85	FOODEEG_Images\0841.jpg	YN	Right	No	1.27751040000021	0	300189	252
588.369140625	1.27751040000021	decision	choicePhaseStart	2	68	8	foodImage.85	FOODEEG_Images\0841.jpg	YN	Right	No	1.27751040000021	0	301246	253
589.638671875	0	decision	response	2	68	8	foodImage.85	FOODEEG_Images\0841.jpg	YN	Right	No	1.27751040000021	0	301896	235
590.6796875	1	health	trialStart	2	69	9	foodImage.34	FOODEEG_Images\0339.jpg	YN	Right	No	1.22697289999996	0	302429	251
591.740234375	2	health	foodImageDisplay	2	69	9	foodImage.34	FOODEEG_Images\0339.jpg	YN	Right	No	1.22697289999996	0	302972	252
593.802734375	1.22697289999996	health	choicePhaseStart	2	69	9	foodImage.34	FOODEEG_Images\0339.jpg	YN	Right	No	1.22697289999996	0	304028	253
595.021484375	0	health	response	2	69	9	foodImage.34	FOODEEG_Images\0339.jpg	YN	Right	No	1.22697289999996	0	304652	235
596.064453125	1	decision	trialStart	2	70	10	foodImage.23	FOODEEG_Images\0244.jpg	YN	Right	No	1.15256419999969	0	305186	251
597.111328125	2	decision	foodImageDisplay	2	70	10	foodImage.23	FOODEEG_Images\0244.jpg	YN	Right	No	1.15256419999969	0	305722	252
599.173828125	1.15256419999969	decision	choicePhaseStart	2	70	10	foodImage.23	FOODEEG_Images\0244.jpg	YN	Right	No	1.15256419999969	0	306778	253
600.31640625	0	decision	response	2	70	10	foodImage.23	FOODEEG_Images\0244.jpg	YN	Right	No	1.15256419999969	0	307363	235
601.361328125	1	health	trialStart	2	71	11	foodImage.108	FOODEEG_Images\0916.jpg	YN	Right	No	1.18206439999994	0	307898	251
602.400390625	2	health	foodImageDisplay	2	71	11	foodImage.108	FOODEEG_Images\0916.jpg	YN	Right	No	1.18206439999994	0	308430	252
604.46484375	1.18206439999994	health	choicePhaseStart	2	71	11	foodImage.108	FOODEEG_Images\0916.jpg	YN	Right	No	1.18206439999994	0	309487	253
605.63671875	0	health	response	2	71	11	foodImage.108	FOODEEG_Images\0916.jpg	YN	Right	No	1.18206439999994	0	310087	235
606.6796875	1	health	trialStart	2	72	12	foodImage.7	FOODEEG_Images\0116.jpg	YN	Right	No	0.821702199999891	0	310621	251
607.720703125	2	health	foodImageDisplay	2	72	12	foodImage.7	FOODEEG_Images\0116.jpg	YN	Right	No	0.821702199999891	0	311154	252
609.783203125	0.821702199999891	health	choicePhaseStart	2	72	12	foodImage.7	FOODEEG_Images\0116.jpg	YN	Right	No	0.821702199999891	0	312210	253
610.59765625	0	health	response	2	72	12	foodImage.7	FOODEEG_Images\0116.jpg	YN	Right	No	0.821702199999891	0	312627	235
611.638671875	1	decision	trialStart	2	73	13	foodImage.24	FOODEEG_Images\0250.jpg	NY	Left	No	1.32959360000041	0	313160	251
612.701171875	2	decision	foodImageDisplay	2	73	13	foodImage.24	FOODEEG_Images\0250.jpg	NY	Left	No	1.32959360000041	0	313704	252
614.765625	1.32959360000041	decision	choicePhaseStart	2	73	13	foodImage.24	FOODEEG_Images\0250.jpg	NY	Left	No	1.32959360000041	0	314761	253
616.083984375	0	decision	response	2	73	13	foodImage.24	FOODEEG_Images\0250.jpg	NY	Left	No	1.32959360000041	0	315436	234
617.1328125	1	taste	trialStart	2	74	14	foodImage.87	FOODEEG_Images\0873.jpg	NY	Left	No	1.26476410000032	0	315973	251
618.193359375	2	taste	foodImageDisplay	2	74	14	foodImage.87	FOODEEG_Images\0873.jpg	NY	Left	No	1.26476410000032	0	316516	252
620.2578125	1.26476410000032	taste	choicePhaseStart	2	74	14	foodImage.87	FOODEEG_Images\0873.jpg	NY	Left	No	1.26476410000032	0	317573	253
621.515625	0	taste	response	2	74	14	foodImage.87	FOODEEG_Images\0873.jpg	NY	Left	No	1.26476410000032	0	318217	234
622.55859375	1	health	trialStart	2	75	15	foodImage.100	FOODEEG_Images\0908.jpg	YN	Right	No	1.46402009999929	0	318751	251
623.59765625	2	health	foodImageDisplay	2	75	15	foodImage.100	FOODEEG_Images\0908.jpg	YN	Right	No	1.46402009999929	0	319283	252
625.662109375	1.46402009999929	health	choicePhaseStart	2	75	15	foodImage.100	FOODEEG_Images\0908.jpg	YN	Right	No	1.46402009999929	0	320340	253
627.1171875	0	health	response	2	75	15	foodImage.100	FOODEEG_Images\0908.jpg	YN	Right	No	1.46402009999929	0	321085	235
628.1640625	1	taste	trialStart	2	76	16	foodImage.3	FOODEEG_Images\0046.jpg	YN	Left	Yes	1.57423199999994	0	321621	251
629.20703125	2	taste	foodImageDisplay	2	76	16	foodImage.3	FOODEEG_Images\0046.jpg	YN	Left	Yes	1.57423199999994	0	322155	252
631.271484375	1.57423199999994	taste	choicePhaseStart	2	76	16	foodImage.3	FOODEEG_Images\0046.jpg	YN	Left	Yes	1.57423199999994	0	323212	253
632.8359375	0	taste	response	2	76	16	foodImage.3	FOODEEG_Images\0046.jpg	YN	Left	Yes	1.57423199999994	0	324013	234
633.87890625	1	decision	trialStart	2	77	17	foodImage.12	FOODEEG_Images\0181.jpg	NY	Left	No	1.19341359999999	0	324547	251
634.94140625	2	decision	foodImageDisplay	2	77	17	foodImage.12	FOODEEG_Images\0181.jpg	NY	Left	No	1.19341359999999	0	325091	252
637.00390625	1.19341359999999	decision	choicePhaseStart	2	77	17	foodImage.12	FOODEEG_Images\0181.jpg	NY	Left	No	1.19341359999999	0	326147	253
638.1875	0	decision	response	2	77	17	foodImage.12	FOODEEG_Images\0181.jpg	NY	Left	No	1.19341359999999	0	326753	234
639.23046875	1	health	trialStart	2	78	18	foodImage.86	FOODEEG_Images\0844.jpg	NY	Left	No	1.51536889999988	0	327287	251
640.2890625	2	health	foodImageDisplay	2	78	18	foodImage.86	FOODEEG_Images\0844.jpg	NY	Left	No	1.51536889999988	0	327829	252
642.353515625	1.51536889999988	health	choicePhaseStart	2	78	18	foodImage.86	FOODEEG_Images\0844.jpg	NY	Left	No	1.51536889999988	0	328886	253
643.859375	0	health	response	2	78	18	foodImage.86	FOODEEG_Images\0844.jpg	NY	Left	No	1.51536889999988	0	329657	234
644.90234375	1	decision	trialStart	2	79	19	foodImage.47	FOODEEG_Images\0488.jpg	YN	Right	No	1.45176230000015	0	330191	251
645.9453125	2	decision	foodImageDisplay	2	79	19	foodImage.47	FOODEEG_Images\0488.jpg	YN	Right	No	1.45176230000015	0	330725	252
648.009765625	1.45176230000015	decision	choicePhaseStart	2	79	19	foodImage.47	FOODEEG_Images\0488.jpg	YN	Right	No	1.45176230000015	0	331782	253
649.451171875	0	decision	response	2	79	19	foodImage.47	FOODEEG_Images\0488.jpg	YN	Right	No	1.45176230000015	0	332520	235
650.494140625	1	taste	trialStart	2	80	20	foodImage.29	FOODEEG_Images\0278.jpg	NY	Left	No	1.00304640000013	0	333054	251
651.537109375	2	taste	foodImageDisplay	2	80	20	foodImage.29	FOODEEG_Images\0278.jpg	NY	Left	No	1.00304640000013	0	333588	252
653.6015625	1.00304640000013	taste	choicePhaseStart	2	80	20	foodImage.29	FOODEEG_Images\0278.jpg	NY	Left	No	1.00304640000013	0	334645	253
654.595703125	0	taste	response	2	80	20	foodImage.29	FOODEEG_Images\0278.jpg	NY	Left	No	1.00304640000013	0	335154	234
655.638671875	1	taste	trialStart	2	81	21	foodImage.55	FOODEEG_Images\0567.jpg	YN	Left	Yes	1.48979080000026	0	335688	251
656.697265625	2	taste	foodImageDisplay	2	81	21	foodImage.55	FOODEEG_Images\0567.jpg	YN	Left	Yes	1.48979080000026	0	336230	252
658.76171875	1.48979080000026	taste	choicePhaseStart	2	81	21	foodImage.55	FOODEEG_Images\0567.jpg	YN	Left	Yes	1.48979080000026	0	337287	253
660.2421875	0	taste	response	2	81	21	foodImage.55	FOODEEG_Images\0567.jpg	YN	Left	Yes	1.48979080000026	0	338045	234
661.28515625	1	health	trialStart	2	82	22	foodImage.92	FOODEEG_Images\0900.jpg	YN	Right	No	1.24625409999953	0	338579	251
662.326171875	2	health	foodImageDisplay	2	82	22	foodImage.92	FOODEEG_Images\0900.jpg	YN	Right	No	1.24625409999953	0	339112	252
664.388671875	1.24625409999953	health	choicePhaseStart	2	82	22	foodImage.92	FOODEEG_Images\0900.jpg	YN	Right	No	1.24625409999953	0	340168	253
665.626953125	0	health	response	2	82	22	foodImage.92	FOODEEG_Images\0900.jpg	YN	Right	No	1.24625409999953	0	340802	235
666.67578125	1	health	trialStart	2	83	23	foodImage.42	FOODEEG_Images\0438.jpg	NY	Right	Yes	1.23580889999994	0	341339	251
667.767578125	2	health	foodImageDisplay	2	83	23	foodImage.42	FOODEEG_Images\0438.jpg	NY	Right	Yes	1.23580889999994	0	341898	252
669.83203125	1.23580889999994	health	choicePhaseStart	2	83	23	foodImage.42	FOODEEG_Images\0438.jpg	NY	Right	Yes	1.23580889999994	0	342955	253
671.05859375	0	health	response	2	83	23	foodImage.42	FOODEEG_Images\0438.jpg	NY	Right	Yes	1.23580889999994	0	343583	235
672.1015625	1	decision	trialStart	2	84	24	foodImage.62	FOODEEG_Images\0644.jpg	YN	Right	No	1.08990110000013	0	344117	251
673.16015625	2	decision	foodImageDisplay	2	84	24	foodImage.62	FOODEEG_Images\0644.jpg	YN	Right	No	1.08990110000013	0	344659	252
675.224609375	1.08990110000013	decision	choicePhaseStart	2	84	24	foodImage.62	FOODEEG_Images\0644.jpg	YN	Right	No	1.08990110000013	0	345716	253
676.306640625	0	decision	response	2	84	24	foodImage.62	FOODEEG_Images\0644.jpg	YN	Right	No	1.08990110000013	0	346270	235
677.349609375	1	taste	trialStart	2	85	25	foodImage.42	FOODEEG_Images\0438.jpg	NY	Left	No	1.37677379999968	0	346804	251
678.4375	2	taste	foodImageDisplay	2	85	25	foodImage.42	FOODEEG_Images\0438.jpg	NY	Left	No	1.37677379999968	0	347361	252
680.5	1.37677379999968	taste	choicePhaseStart	2	85	25	foodImage.42	FOODEEG_Images\0438.jpg	NY	Left	No	1.37677379999968	0	348417	253
681.8671875	0	taste	response	2	85	25	foodImage.42	FOODEEG_Images\0438.jpg	NY	Left	No	1.37677379999968	0	349117	234
682.908203125	1	health	trialStart	2	86	26	foodImage.53	FOODEEG_Images\0547.jpg	YN	Right	No	1.22726220000004	0	349650	251
683.966796875	2	health	foodImageDisplay	2	86	26	foodImage.53	FOODEEG_Images\0547.jpg	YN	Right	No	1.22726220000004	0	350192	252
686.029296875	1.22726220000004	health	choicePhaseStart	2	86	26	foodImage.53	FOODEEG_Images\0547.jpg	YN	Right	No	1.22726220000004	0	351248	253
687.25	0	health	response	2	86	26	foodImage.53	FOODEEG_Images\0547.jpg	YN	Right	No	1.22726220000004	0	351873	235
688.29296875	1	taste	trialStart	2	87	27	foodImage.115	FOODEEG_Images\0923.jpg	YN	Right	No	1.30451680000078	0	352407	251
689.330078125	2	taste	foodImageDisplay	2	87	27	foodImage.115	FOODEEG_Images\0923.jpg	YN	Right	No	1.30451680000078	0	352938	252
691.39453125	1.30451680000078	taste	choicePhaseStart	2	87	27	foodImage.115	FOODEEG_Images\0923.jpg	YN	Right	No	1.30451680000078	0	353995	253
692.689453125	0	taste	response	2	87	27	foodImage.115	FOODEEG_Images\0923.jpg	YN	Right	No	1.30451680000078	0	354658	235
693.732421875	1	decision	trialStart	2	88	28	foodImage.113	FOODEEG_Images\0921.jpg	NY	Left	No	1.39957260000028	0	355192	251
694.7734375	2	decision	foodImageDisplay	2	88	28	foodImage.113	FOODEEG_Images\0921.jpg	NY	Left	No	1.39957260000028	0	355725	252
696.8359375	1.39957260000028	decision	choicePhaseStart	2	88	28	foodImage.113	FOODEEG_Images\0921.jpg	NY	Left	No	1.39957260000028	0	356781	253
698.2265625	0	decision	response	2	88	28	foodImage.113	FOODEEG_Images\0921.jpg	NY	Left	No	1.39957260000028	0	357493	234
699.267578125	1	taste	trialStart	2	89	29	foodImage.51	FOODEEG_Images\0536.jpg	NY	Left	No	1.66609549999976	0	358026	251
700.314453125	2	taste	foodImageDisplay	2	89	29	foodImage.51	FOODEEG_Images\0536.jpg	NY	Left	No	1.66609549999976	0	358562	252
702.376953125	1.66609549999976	taste	choicePhaseStart	2	89	29	foodImage.51	FOODEEG_Images\0536.jpg	NY	Left	No	1.66609549999976	0	359618	253
704.033203125	0	taste	response	2	89	29	foodImage.51	FOODEEG_Images\0536.jpg	NY	Left	No	1.66609549999976	0	360466	234
705.076171875	1	health	trialStart	2	90	30	foodImage.2	FOODEEG_Images\0028.jpg	YN	Right	No	1.25820759999988	0	361000	251
706.1171875	2	health	foodImageDisplay	2	90	30	foodImage.2	FOODEEG_Images\0028.jpg	YN	Right	No	1.25820759999988	0	361533	252
708.181640625	1.25820759999988	health	choicePhaseStart	2	90	30	foodImage.2	FOODEEG_Images\0028.jpg	YN	Right	No	1.25820759999988	0	362590	253
709.43359375	0	health	response	2	90	30	foodImage.2	FOODEEG_Images\0028.jpg	YN	Right	No	1.25820759999988	0	363231	235
710.4765625	1	taste	trialStart	2	91	31	foodImage.80	FOODEEG_Images\0796.jpg	YN	Left	Yes	2.8347248	0	363765	251
711.537109375	2	taste	foodImageDisplay	2	91	31	foodImage.80	FOODEEG_Images\0796.jpg	YN	Left	Yes	2.8347248	0	364308	252
713.599609375	2.8347248	taste	choicePhaseStart	2	91	31	foodImage.80	FOODEEG_Images\0796.jpg	YN	Left	Yes	2.8347248	0	365364	253
716.42578125	0	taste	response	2	91	31	foodImage.80	FOODEEG_Images\0796.jpg	YN	Left	Yes	2.8347248	0	366811	234
717.466796875	1	decision	trialStart	2	92	32	foodImage.111	FOODEEG_Images\0919.jpg	YN	Right	No	1.15962769999987	0	367344	251
718.505859375	2	decision	foodImageDisplay	2	92	32	foodImage.111	FOODEEG_Images\0919.jpg	YN	Right	No	1.15962769999987	0	367876	252
720.5703125	1.15962769999987	decision	choicePhaseStart	2	92	32	foodImage.111	FOODEEG_Images\0919.jpg	YN	Right	No	1.15962769999987	0	368933	253
721.720703125	0	decision	response	2	92	32	foodImage.111	FOODEEG_Images\0919.jpg	YN	Right	No	1.15962769999987	0	369522	235
722.763671875	1	health	trialStart	2	93	33	foodImage.31	FOODEEG_Images\0294.jpg	YN	Right	No	1.23268000000007	0	370056	251
723.80859375	2	health	foodImageDisplay	2	93	33	foodImage.31	FOODEEG_Images\0294.jpg	YN	Right	No	1.23268000000007	0	370591	252
725.873046875	1.23268000000007	health	choicePhaseStart	2	93	33	foodImage.31	FOODEEG_Images\0294.jpg	YN	Right	No	1.23268000000007	0	371648	253
727.095703125	0	health	response	2	93	33	foodImage.31	FOODEEG_Images\0294.jpg	YN	Right	No	1.23268000000007	0	372274	235
728.14453125	1	decision	trialStart	2	94	34	foodImage.84	FOODEEG_Images\0830.jpg	YN	Left	Yes	1.75854849999996	0	372811	251
729.203125	2	decision	foodImageDisplay	2	94	34	foodImage.84	FOODEEG_Images\0830.jpg	YN	Left	Yes	1.75854849999996	0	373353	252
731.265625	1.75854849999996	decision	choicePhaseStart	2	94	34	foodImage.84	FOODEEG_Images\0830.jpg	YN	Left	Yes	1.75854849999996	0	374409	253
733.015625	0	decision	response	2	94	34	foodImage.84	FOODEEG_Images\0830.jpg	YN	Left	Yes	1.75854849999996	0	375305	234
734.05859375	1	decision	trialStart	2	95	35	foodImage.37	FOODEEG_Images\0359.jpg	YN	Right	No	1.40212680000059	0	375839	251
735.1015625	2	decision	foodImageDisplay	2	95	35	foodImage.37	FOODEEG_Images\0359.jpg	YN	Right	No	1.40212680000059	0	376373	252
737.166015625	1.40212680000059	decision	choicePhaseStart	2	95	35	foodImage.37	FOODEEG_Images\0359.jpg	YN	Right	No	1.40212680000059	0	377430	253
738.560546875	0	decision	response	2	95	35	foodImage.37	FOODEEG_Images\0359.jpg	YN	Right	No	1.40212680000059	0	378144	235
739.603515625	1	decision	trialStart	2	96	36	foodImage.5	FOODEEG_Images\0107.jpg	NY	Left	No	1.21678859999975	0	378678	251
740.6640625	2	decision	foodImageDisplay	2	96	36	foodImage.5	FOODEEG_Images\0107.jpg	NY	Left	No	1.21678859999975	0	379221	252
742.728515625	1.21678859999975	decision	choicePhaseStart	2	96	36	foodImage.5	FOODEEG_Images\0107.jpg	NY	Left	No	1.21678859999975	0	380278	253
743.935546875	0	decision	response	2	96	36	foodImage.5	FOODEEG_Images\0107.jpg	NY	Left	No	1.21678859999975	0	380896	234
744.978515625	1	taste	trialStart	2	97	37	foodImage.58	FOODEEG_Images\0605.jpg	NY	Left	No	1.57302200000049	0	381430	251
746.037109375	2	taste	foodImageDisplay	2	97	37	foodImage.58	FOODEEG_Images\0605.jpg	NY	Left	No	1.57302200000049	0	381972	252
748.099609375	1.57302200000049	taste	choicePhaseStart	2	97	37	foodImage.58	FOODEEG_Images\0605.jpg	NY	Left	No	1.57302200000049	0	383028	253
749.6640625	0	taste	response	2	97	37	foodImage.58	FOODEEG_Images\0605.jpg	NY	Left	No	1.57302200000049	0	383829	234
750.70703125	1	decision	trialStart	2	98	38	foodImage.48	FOODEEG_Images\0494.jpg	YN	Right	No	1.15424569999959	0	384363	251
751.75	2	decision	foodImageDisplay	2	98	38	foodImage.48	FOODEEG_Images\0494.jpg	YN	Right	No	1.15424569999959	0	384897	252
753.814453125	1.15424569999959	decision	choicePhaseStart	2	98	38	foodImage.48	FOODEEG_Images\0494.jpg	YN	Right	No	1.15424569999959	0	385954	253
754.958984375	0	decision	response	2	98	38	foodImage.48	FOODEEG_Images\0494.jpg	YN	Right	No	1.15424569999959	0	386540	235
756.001953125	1	health	trialStart	2	99	39	foodImage.105	FOODEEG_Images\0913.jpg	YN	Left	Yes	1.40828369999963	0	387074	251
757.041015625	2	health	foodImageDisplay	2	99	39	foodImage.105	FOODEEG_Images\0913.jpg	YN	Left	Yes	1.40828369999963	0	387606	252
759.10546875	1.40828369999963	health	choicePhaseStart	2	99	39	foodImage.105	FOODEEG_Images\0913.jpg	YN	Left	Yes	1.40828369999963	0	388663	253
760.50390625	0	health	response	2	99	39	foodImage.105	FOODEEG_Images\0913.jpg	YN	Left	Yes	1.40828369999963	0	389379	234
761.546875	1	decision	trialStart	2	100	40	foodImage.15	FOODEEG_Images\0189.jpg	YN	Right	No	0.986993700000312	0	389913	251
762.603515625	2	decision	foodImageDisplay	2	100	40	foodImage.15	FOODEEG_Images\0189.jpg	YN	Right	No	0.986993700000312	0	390454	252
764.66796875	0.986993700000312	decision	choicePhaseStart	2	100	40	foodImage.15	FOODEEG_Images\0189.jpg	YN	Right	No	0.986993700000312	0	391511	253
765.646484375	0	decision	response	2	100	40	foodImage.15	FOODEEG_Images\0189.jpg	YN	Right	No	0.986993700000312	0	392012	235
766.6953125	1	health	trialStart	2	101	41	foodImage.119	FOODEEG_Images\0927.jpg	YN	Right	No	1.15348450000056	0	392549	251
767.734375	2	health	foodImageDisplay	2	101	41	foodImage.119	FOODEEG_Images\0927.jpg	YN	Right	No	1.15348450000056	0	393081	252
769.796875	1.15348450000056	health	choicePhaseStart	2	101	41	foodImage.119	FOODEEG_Images\0927.jpg	YN	Right	No	1.15348450000056	0	394137	253
770.943359375	0	health	response	2	101	41	foodImage.119	FOODEEG_Images\0927.jpg	YN	Right	No	1.15348450000056	0	394724	235
771.986328125	1	health	trialStart	2	102	42	foodImage.91	FOODEEG_Images\0896.jpg	NY	Left	No	1.53421929999968	0	395258	251
773.041015625	2	health	foodImageDisplay	2	102	42	foodImage.91	FOODEEG_Images\0896.jpg	NY	Left	No	1.53421929999968	0	395798	252
775.10546875	1.53421929999968	health	choicePhaseStart	2	102	42	foodImage.91	FOODEEG_Images\0896.jpg	NY	Left	No	1.53421929999968	0	396855	253
776.630859375	0	health	response	2	102	42	foodImage.91	FOODEEG_Images\0896.jpg	NY	Left	No	1.53421929999968	0	397636	234
777.671875	1	decision	trialStart	2	103	43	foodImage.95	FOODEEG_Images\0903.jpg	YN	Right	No	1.2018319000008	0	398169	251
778.724609375	2	decision	foodImageDisplay	2	103	43	foodImage.95	FOODEEG_Images\0903.jpg	YN	Right	No	1.2018319000008	0	398708	252
780.7890625	1.2018319000008	decision	choicePhaseStart	2	103	43	foodImage.95	FOODEEG_Images\0903.jpg	YN	Right	No	1.2018319000008	0	399765	253
781.982421875	0	decision	response	2	103	43	foodImage.95	FOODEEG_Images\0903.jpg	YN	Right	No	1.2018319000008	0	400376	235
783.025390625	1	decision	trialStart	2	104	44	foodImage.87	FOODEEG_Images\0873.jpg	YN	Right	No	1.92557159999978	0	400910	251
784.08203125	2	decision	foodImageDisplay	2	104	44	foodImage.87	FOODEEG_Images\0873.jpg	YN	Right	No	1.92557159999978	0	401451	252
786.146484375	1.92557159999978	decision	choicePhaseStart	2	104	44	foodImage.87	FOODEEG_Images\0873.jpg	YN	Right	No	1.92557159999978	0	402508	253
788.0625	0	decision	response	2	104	44	foodImage.87	FOODEEG_Images\0873.jpg	YN	Right	No	1.92557159999978	0	403489	235
789.10546875	1	decision	trialStart	2	105	45	foodImage.65	FOODEEG_Images\0658.jpg	NY	Left	No	1.2028593999994	0	404023	251
790.1484375	2	decision	foodImageDisplay	2	105	45	foodImage.65	FOODEEG_Images\0658.jpg	NY	Left	No	1.2028593999994	0	404557	252
792.212890625	1.2028593999994	decision	choicePhaseStart	2	105	45	foodImage.65	FOODEEG_Images\0658.jpg	NY	Left	No	1.2028593999994	0	405614	253
793.40625	0	decision	response	2	105	45	foodImage.65	FOODEEG_Images\0658.jpg	NY	Left	No	1.2028593999994	0	406225	234
794.447265625	1	taste	trialStart	2	106	46	foodImage.76	FOODEEG_Images\0766.jpg	YN	Right	No	1.41678950000005	0	406758	251
795.4921875	2	taste	foodImageDisplay	2	106	46	foodImage.76	FOODEEG_Images\0766.jpg	YN	Right	No	1.41678950000005	0	407293	252
797.5546875	1.41678950000005	taste	choicePhaseStart	2	106	46	foodImage.76	FOODEEG_Images\0766.jpg	YN	Right	No	1.41678950000005	0	408349	253
798.96484375	0	taste	response	2	106	46	foodImage.76	FOODEEG_Images\0766.jpg	YN	Right	No	1.41678950000005	0	409071	235
800.0078125	1	taste	trialStart	2	107	47	foodImage.70	FOODEEG_Images\0705.jpg	YN	Left	Yes	1.91490130000057	0	409605	251
801.06640625	2	taste	foodImageDisplay	2	107	47	foodImage.70	FOODEEG_Images\0705.jpg	YN	Left	Yes	1.91490130000057	0	410147	252
803.130859375	1.91490130000057	taste	choicePhaseStart	2	107	47	foodImage.70	FOODEEG_Images\0705.jpg	YN	Left	Yes	1.91490130000057	0	411204	253
805.037109375	0	taste	response	2	107	47	foodImage.70	FOODEEG_Images\0705.jpg	YN	Left	Yes	1.91490130000057	0	412180	234
806.080078125	1	taste	trialStart	2	108	48	foodImage.113	FOODEEG_Images\0921.jpg	YN	Right	No	1.39071289999993	0	412714	251
807.119140625	2	taste	foodImageDisplay	2	108	48	foodImage.113	FOODEEG_Images\0921.jpg	YN	Right	No	1.39071289999993	0	413246	252
809.18359375	1.39071289999993	taste	choicePhaseStart	2	108	48	foodImage.113	FOODEEG_Images\0921.jpg	YN	Right	No	1.39071289999993	0	414303	253
810.564453125	0	taste	response	2	108	48	foodImage.113	FOODEEG_Images\0921.jpg	YN	Right	No	1.39071289999993	0	415010	235
811.609375	1	decision	trialStart	2	109	49	foodImage.112	FOODEEG_Images\0920.jpg	NY	Left	No	1.19049519999953	0	415545	251
812.6484375	2	decision	foodImageDisplay	2	109	49	foodImage.112	FOODEEG_Images\0920.jpg	NY	Left	No	1.19049519999953	0	416077	252
814.7109375	1.19049519999953	decision	choicePhaseStart	2	109	49	foodImage.112	FOODEEG_Images\0920.jpg	NY	Left	No	1.19049519999953	0	417133	253
815.892578125	0	decision	response	2	109	49	foodImage.112	FOODEEG_Images\0920.jpg	NY	Left	No	1.19049519999953	0	417738	234
816.935546875	1	decision	trialStart	2	110	50	foodImage.102	FOODEEG_Images\0910.jpg	YN	Right	No	1.22779029999947	0	418272	251
817.9765625	2	decision	foodImageDisplay	2	110	50	foodImage.102	FOODEEG_Images\0910.jpg	YN	Right	No	1.22779029999947	0	418805	252
820.041015625	1.22779029999947	decision	choicePhaseStart	2	110	50	foodImage.102	FOODEEG_Images\0910.jpg	YN	Right	No	1.22779029999947	0	419862	253
821.26171875	0	decision	response	2	110	50	foodImage.102	FOODEEG_Images\0910.jpg	YN	Right	No	1.22779029999947	0	420487	235
822.3046875	1	health	trialStart	2	111	51	foodImage.3	FOODEEG_Images\0046.jpg	NY	Left	No	1.22757989999991	0	421021	251
823.34765625	2	health	foodImageDisplay	2	111	51	foodImage.3	FOODEEG_Images\0046.jpg	NY	Left	No	1.22757989999991	0	421555	252
825.41015625	1.22757989999991	health	choicePhaseStart	2	111	51	foodImage.3	FOODEEG_Images\0046.jpg	NY	Left	No	1.22757989999991	0	422611	253
826.62890625	0	health	response	2	111	51	foodImage.3	FOODEEG_Images\0046.jpg	NY	Left	No	1.22757989999991	0	423235	234
827.671875	1	health	trialStart	2	112	52	foodImage.46	FOODEEG_Images\0479.jpg	NY	Right	Yes	1.44998240000041	0	423769	251
828.73046875	2	health	foodImageDisplay	2	112	52	foodImage.46	FOODEEG_Images\0479.jpg	NY	Right	Yes	1.44998240000041	0	424311	252
830.794921875	1.44998240000041	health	choicePhaseStart	2	112	52	foodImage.46	FOODEEG_Images\0479.jpg	NY	Right	Yes	1.44998240000041	0	425368	253
832.236328125	0	health	response	2	112	52	foodImage.46	FOODEEG_Images\0479.jpg	NY	Right	Yes	1.44998240000041	0	426106	235
833.279296875	1	health	trialStart	2	113	53	foodImage.62	FOODEEG_Images\0644.jpg	NY	Left	No	1.19479950000004	0	426640	251
834.337890625	2	health	foodImageDisplay	2	113	53	foodImage.62	FOODEEG_Images\0644.jpg	NY	Left	No	1.19479950000004	0	427182	252
836.40234375	1.19479950000004	health	choicePhaseStart	2	113	53	foodImage.62	FOODEEG_Images\0644.jpg	NY	Left	No	1.19479950000004	0	428239	253
837.587890625	0	health	response	2	113	53	foodImage.62	FOODEEG_Images\0644.jpg	NY	Left	No	1.19479950000004	0	428846	234
838.630859375	1	decision	trialStart	2	114	54	foodImage.57	FOODEEG_Images\0587.jpg	YN	Right	No	1.23130850000052	0	429380	251
839.673828125	2	decision	foodImageDisplay	2	114	54	foodImage.57	FOODEEG_Images\0587.jpg	YN	Right	No	1.23130850000052	0	429914	252
841.7421875	1.23130850000052	decision	choicePhaseStart	2	114	54	foodImage.57	FOODEEG_Images\0587.jpg	YN	Right	No	1.23130850000052	0	430973	253
842.962890625	0	decision	response	2	114	54	foodImage.57	FOODEEG_Images\0587.jpg	YN	Right	No	1.23130850000052	0	431598	235
844.005859375	1	decision	trialStart	2	115	55	foodImage.31	FOODEEG_Images\0294.jpg	YN	Right	No	0.948633300000438	0	432132	251
845.048828125	2	decision	foodImageDisplay	2	115	55	foodImage.31	FOODEEG_Images\0294.jpg	YN	Right	No	0.948633300000438	0	432666	252
847.11328125	0.948633300000438	decision	choicePhaseStart	2	115	55	foodImage.31	FOODEEG_Images\0294.jpg	YN	Right	No	0.948633300000438	0	433723	253
848.05078125	0	decision	response	2	115	55	foodImage.31	FOODEEG_Images\0294.jpg	YN	Right	No	0.948633300000438	0	434203	235
849.09375	1	health	trialStart	2	116	56	foodImage.80	FOODEEG_Images\0796.jpg	YN	Left	Yes	1.45678169999974	0	434737	251
850.15234375	2	health	foodImageDisplay	2	116	56	foodImage.80	FOODEEG_Images\0796.jpg	YN	Left	Yes	1.45678169999974	0	435279	252
852.216796875	1.45678169999974	health	choicePhaseStart	2	116	56	foodImage.80	FOODEEG_Images\0796.jpg	YN	Left	Yes	1.45678169999974	0	436336	253
853.66796875	0	health	response	2	116	56	foodImage.80	FOODEEG_Images\0796.jpg	YN	Left	Yes	1.45678169999974	0	437079	234
854.7109375	1	taste	trialStart	2	117	57	foodImage.30	FOODEEG_Images\0282.jpg	NY	Right	Yes	1.58687100000043	0	437613	251
855.75390625	2	taste	foodImageDisplay	2	117	57	foodImage.30	FOODEEG_Images\0282.jpg	NY	Right	Yes	1.58687100000043	0	438147	252
857.818359375	1.58687100000043	taste	choicePhaseStart	2	117	57	foodImage.30	FOODEEG_Images\0282.jpg	NY	Right	Yes	1.58687100000043	0	439204	253
859.39453125	0	taste	response	2	117	57	foodImage.30	FOODEEG_Images\0282.jpg	NY	Right	Yes	1.58687100000043	0	440011	235
860.4375	1	health	trialStart	2	118	58	foodImage.38	FOODEEG_Images\0365.jpg	YN	Left	Yes	1.11980219999987	0	440545	251
861.4765625	2	health	foodImageDisplay	2	118	58	foodImage.38	FOODEEG_Images\0365.jpg	YN	Left	Yes	1.11980219999987	0	441077	252
863.5390625	1.11980219999987	health	choicePhaseStart	2	118	58	foodImage.38	FOODEEG_Images\0365.jpg	YN	Left	Yes	1.11980219999987	0	442133	253
864.650390625	0	health	response	2	118	58	foodImage.38	FOODEEG_Images\0365.jpg	YN	Left	Yes	1.11980219999987	0	442702	234
865.69140625	1	health	trialStart	2	119	59	foodImage.77	FOODEEG_Images\0771.jpg	YN	Left	Yes	0.966225199999826	0	443235	251
866.734375	2	health	foodImageDisplay	2	119	59	foodImage.77	FOODEEG_Images\0771.jpg	YN	Left	Yes	0.966225199999826	0	443769	252
868.798828125	0.966225199999826	health	choicePhaseStart	2	119	59	foodImage.77	FOODEEG_Images\0771.jpg	YN	Left	Yes	0.966225199999826	0	444826	253
869.75390625	0	health	response	2	119	59	foodImage.77	FOODEEG_Images\0771.jpg	YN	Left	Yes	0.966225199999826	0	445315	234
870.796875	1	decision	trialStart	2	120	60	foodImage.108	FOODEEG_Images\0916.jpg	NY	Left	No	1.24783579999985	0	445849	251
871.8359375	2	decision	foodImageDisplay	2	120	60	foodImage.108	FOODEEG_Images\0916.jpg	NY	Left	No	1.24783579999985	0	446381	252
873.900390625	1.24783579999985	decision	choicePhaseStart	2	120	60	foodImage.108	FOODEEG_Images\0916.jpg	NY	Left	No	1.24783579999985	0	447438	253
875.138671875	0	decision	response	2	120	60	foodImage.108	FOODEEG_Images\0916.jpg	NY	Left	No	1.24783579999985	0	448072	234
877.189453125	1.10546875	n/a	blockEnd	n/a	n/a	n/a	n/a	n/a	n/a	n/a	n/a	n/a	n/a	449122	254
878.294921875	2	n/a	blockStart	3	n/a	n/a	n/a	n/a	n/a	n/a	n/a	n/a	n/a	449688	250
880.328125	1	taste	trialStart	3	121	1	foodImage.61	FOODEEG_Images\0640.jpg	NY	Right	Yes	2.21562790000007	0	450729	251
881.37109375	2	taste	foodImageDisplay	3	121	1	foodImage.61	FOODEEG_Images\0640.jpg	NY	Right	Yes	2.21562790000007	0	451263	252
883.435546875	2.21562790000007	taste	choicePhaseStart	3	121	1	foodImage.61	FOODEEG_Images\0640.jpg	NY	Right	Yes	2.21562790000007	0	452320	253
885.642578125	0	taste	response	3	121	1	foodImage.61	FOODEEG_Images\0640.jpg	NY	Right	Yes	2.21562790000007	0	453450	235
886.685546875	1	decision	trialStart	3	122	2	foodImage.99	FOODEEG_Images\0907.jpg	YN	Right	No	1.30353379999997	0	453984	251
887.72265625	2	decision	foodImageDisplay	3	122	2	foodImage.99	FOODEEG_Images\0907.jpg	YN	Right	No	1.30353379999997	0	454515	252
889.787109375	1.30353379999997	decision	choicePhaseStart	3	122	2	foodImage.99	FOODEEG_Images\0907.jpg	YN	Right	No	1.30353379999997	0	455572	253
891.08203125	0	decision	response	3	122	2	foodImage.99	FOODEEG_Images\0907.jpg	YN	Right	No	1.30353379999997	0	456235	235
892.123046875	1	decision	trialStart	3	123	3	foodImage.118	FOODEEG_Images\0926.jpg	NY	Left	No	1.52025929999945	0	456768	251
893.1640625	2	decision	foodImageDisplay	3	123	3	foodImage.118	FOODEEG_Images\0926.jpg	NY	Left	No	1.52025929999945	0	457301	252
895.234375	1.52025929999945	decision	choicePhaseStart	3	123	3	foodImage.118	FOODEEG_Images\0926.jpg	NY	Left	No	1.52025929999945	0	458361	253
896.74609375	0	decision	response	3	123	3	foodImage.118	FOODEEG_Images\0926.jpg	NY	Left	No	1.52025929999945	0	459135	234
897.7890625	1	taste	trialStart	3	124	4	foodImage.73	FOODEEG_Images\0717.jpg	NY	Left	No	2.25053050000042	0	459669	251
898.849609375	2	taste	foodImageDisplay	3	124	4	foodImage.73	FOODEEG_Images\0717.jpg	NY	Left	No	2.25053050000042	0	460212	252
900.912109375	2.25053050000042	taste	choicePhaseStart	3	124	4	foodImage.73	FOODEEG_Images\0717.jpg	NY	Left	No	2.25053050000042	0	461268	253
903.154296875	0	taste	response	3	124	4	foodImage.73	FOODEEG_Images\0717.jpg	NY	Left	No	2.25053050000042	0	462416	234
904.1953125	1	health	trialStart	3	125	5	foodImage.111	FOODEEG_Images\0919.jpg	YN	Right	No	1.24035750000075	0	462949	251
905.234375	2	health	foodImageDisplay	3	125	5	foodImage.111	FOODEEG_Images\0919.jpg	YN	Right	No	1.24035750000075	0	463481	252
907.298828125	1.24035750000075	health	choicePhaseStart	3	125	5	foodImage.111	FOODEEG_Images\0919.jpg	YN	Right	No	1.24035750000075	0	464538	253
908.529296875	0	health	response	3	125	5	foodImage.111	FOODEEG_Images\0919.jpg	YN	Right	No	1.24035750000075	0	465168	235
909.572265625	1	health	trialStart	3	126	6	foodImage.44	FOODEEG_Images\0459.jpg	YN	Left	Yes	0.932361799999853	0	465702	251
910.619140625	2	health	foodImageDisplay	3	126	6	foodImage.44	FOODEEG_Images\0459.jpg	YN	Left	Yes	0.932361799999853	0	466238	252
912.685546875	0.932361799999853	health	choicePhaseStart	3	126	6	foodImage.44	FOODEEG_Images\0459.jpg	YN	Left	Yes	0.932361799999853	0	467296	253
913.609375	0	health	response	3	126	6	foodImage.44	FOODEEG_Images\0459.jpg	YN	Left	Yes	0.932361799999853	0	467769	234
914.65234375	1	taste	trialStart	3	127	7	foodImage.32	FOODEEG_Images\0319.jpg	NY	Right	Yes	1.14368190000005	0	468303	251
915.69921875	2	taste	foodImageDisplay	3	127	7	foodImage.32	FOODEEG_Images\0319.jpg	NY	Right	Yes	1.14368190000005	0	468839	252
917.76171875	1.14368190000005	taste	choicePhaseStart	3	127	7	foodImage.32	FOODEEG_Images\0319.jpg	NY	Right	Yes	1.14368190000005	0	469895	253
918.896484375	0	taste	response	3	127	7	foodImage.32	FOODEEG_Images\0319.jpg	NY	Right	Yes	1.14368190000005	0	470476	235
919.939453125	1	health	trialStart	3	128	8	foodImage.30	FOODEEG_Images\0282.jpg	NY	Right	Yes	1.14661100000012	0	471010	251
920.982421875	2	health	foodImageDisplay	3	128	8	foodImage.30	FOODEEG_Images\0282.jpg	NY	Right	Yes	1.14661100000012	0	471544	252
923.046875	1.14661100000012	health	choicePhaseStart	3	128	8	foodImage.30	FOODEEG_Images\0282.jpg	NY	Right	Yes	1.14661100000012	0	472601	253
924.185546875	0	health	response	3	128	8	foodImage.30	FOODEEG_Images\0282.jpg	NY	Right	Yes	1.14661100000012	0	473184	235
925.228515625	1	health	trialStart	3	129	9	foodImage.55	FOODEEG_Images\0567.jpg	NY	Left	No	2.44626040000003	0	473718	251
926.287109375	2	health	foodImageDisplay	3	129	9	foodImage.55	FOODEEG_Images\0567.jpg	NY	Left	No	2.44626040000003	0	474260	252
928.35546875	2.44626040000003	health	choicePhaseStart	3	129	9	foodImage.55	FOODEEG_Images\0567.jpg	NY	Left	No	2.44626040000003	0	475319	253
930.79296875	0	health	response	3	129	9	foodImage.55	FOODEEG_Images\0567.jpg	NY	Left	No	2.44626040000003	0	476567	234
931.833984375	1	health	trialStart	3	130	10	foodImage.59	FOODEEG_Images\0607.jpg	YN	Right	No	1.03279490000023	0	477100	251
932.880859375	2	health	foodImageDisplay	3	130	10	foodImage.59	FOODEEG_Images\0607.jpg	YN	Right	No	1.03279490000023	0	477636	252
934.943359375	1.03279490000023	health	choicePhaseStart	3	130	10	foodImage.59	FOODEEG_Images\0607.jpg	YN	Right	No	1.03279490000023	0	478692	253
935.96875	0	health	response	3	130	10	foodImage.59	FOODEEG_Images\0607.jpg	YN	Right	No	1.03279490000023	0	479217	235
937.01171875	1	decision	trialStart	3	131	11	foodImage.97	FOODEEG_Images\0905.jpg	YN	Right	No	1.05989039999986	0	479751	251
938.06640625	2	decision	foodImageDisplay	3	131	11	foodImage.97	FOODEEG_Images\0905.jpg	YN	Right	No	1.05989039999986	0	480291	252
940.130859375	1.05989039999986	decision	choicePhaseStart	3	131	11	foodImage.97	FOODEEG_Images\0905.jpg	YN	Right	No	1.05989039999986	0	481348	253
941.18359375	0	decision	response	3	131	11	foodImage.97	FOODEEG_Images\0905.jpg	YN	Right	No	1.05989039999986	0	481887	235
942.2265625	1	taste	trialStart	3	132	12	foodImage.104	FOODEEG_Images\0912.jpg	YN	Right	No	1.05339529999947	0	482421	251
943.267578125	2	taste	foodImageDisplay	3	132	12	foodImage.104	FOODEEG_Images\0912.jpg	YN	Right	No	1.05339529999947	0	482954	252
945.330078125	1.05339529999947	taste	choicePhaseStart	3	132	12	foodImage.104	FOODEEG_Images\0912.jpg	YN	Right	No	1.05339529999947	0	484010	253
946.375	0	taste	response	3	132	12	foodImage.104	FOODEEG_Images\0912.jpg	YN	Right	No	1.05339529999947	0	484545	235
947.419921875	1	health	trialStart	3	133	13	foodImage.69	FOODEEG_Images\0693.jpg	NY	Left	No	1.37058439999964	0	485080	251
948.462890625	2	health	foodImageDisplay	3	133	13	foodImage.69	FOODEEG_Images\0693.jpg	NY	Left	No	1.37058439999964	0	485614	252
950.52734375	1.37058439999964	health	choicePhaseStart	3	133	13	foodImage.69	FOODEEG_Images\0693.jpg	NY	Left	No	1.37058439999964	0	486671	253
951.88671875	0	health	response	3	133	13	foodImage.69	FOODEEG_Images\0693.jpg	NY	Left	No	1.37058439999964	0	487367	234
952.9296875	1	taste	trialStart	3	134	14	foodImage.59	FOODEEG_Images\0607.jpg	NY	Left	No	2.56173740000031	0	487901	251
954	2	taste	foodImageDisplay	3	134	14	foodImage.59	FOODEEG_Images\0607.jpg	NY	Left	No	2.56173740000031	0	488449	252
956.0625	2.56173740000031	taste	choicePhaseStart	3	134	14	foodImage.59	FOODEEG_Images\0607.jpg	NY	Left	No	2.56173740000031	0	489505	253
958.615234375	0	taste	response	3	134	14	foodImage.59	FOODEEG_Images\0607.jpg	NY	Left	No	2.56173740000031	0	490812	234
959.658203125	1	decision	trialStart	3	135	15	foodImage.9	FOODEEG_Images\0138.jpg	YN	Right	No	3.73245970000062	0	491346	251
960.71484375	2	decision	foodImageDisplay	3	135	15	foodImage.9	FOODEEG_Images\0138.jpg	YN	Right	No	3.73245970000062	0	491887	252
962.779296875	3.73245970000062	decision	choicePhaseStart	3	135	15	foodImage.9	FOODEEG_Images\0138.jpg	YN	Right	No	3.73245970000062	0	492944	253
966.50390625	0	decision	response	3	135	15	foodImage.9	FOODEEG_Images\0138.jpg	YN	Right	No	3.73245970000062	0	494851	235
967.546875	1	health	trialStart	3	136	16	foodImage.115	FOODEEG_Images\0923.jpg	YN	Right	No	1.20709910000005	0	495385	251
968.583984375	2	health	foodImageDisplay	3	136	16	foodImage.115	FOODEEG_Images\0923.jpg	YN	Right	No	1.20709910000005	0	495916	252
970.6484375	1.20709910000005	health	choicePhaseStart	3	136	16	foodImage.115	FOODEEG_Images\0923.jpg	YN	Right	No	1.20709910000005	0	496973	253
971.845703125	0	health	response	3	136	16	foodImage.115	FOODEEG_Images\0923.jpg	YN	Right	No	1.20709910000005	0	497586	235
972.888671875	1	decision	trialStart	3	137	17	foodImage.13	FOODEEG_Images\0183.jpg	NY	Left	No	1.20964390000063	0	498120	251
973.931640625	2	decision	foodImageDisplay	3	137	17	foodImage.13	FOODEEG_Images\0183.jpg	NY	Left	No	1.20964390000063	0	498654	252
975.998046875	1.20964390000063	decision	choicePhaseStart	3	137	17	foodImage.13	FOODEEG_Images\0183.jpg	NY	Left	No	1.20964390000063	0	499712	253
977.19921875	0	decision	response	3	137	17	foodImage.13	FOODEEG_Images\0183.jpg	NY	Left	No	1.20964390000063	0	500327	234
978.240234375	1	decision	trialStart	3	138	18	foodImage.88	FOODEEG_Images\0878.jpg	YN	Left	Yes	1.73021909999989	0	500860	251
979.298828125	2	decision	foodImageDisplay	3	138	18	foodImage.88	FOODEEG_Images\0878.jpg	YN	Left	Yes	1.73021909999989	0	501402	252
981.365234375	1.73021909999989	decision	choicePhaseStart	3	138	18	foodImage.88	FOODEEG_Images\0878.jpg	YN	Left	Yes	1.73021909999989	0	502460	253
983.0859375	0	decision	response	3	138	18	foodImage.88	FOODEEG_Images\0878.jpg	YN	Left	Yes	1.73021909999989	0	503341	234
984.12890625	1	health	trialStart	3	139	19	foodImage.99	FOODEEG_Images\0907.jpg	YN	Right	No	2.87276389999988	0	503875	251
985.16796875	2	health	foodImageDisplay	3	139	19	foodImage.99	FOODEEG_Images\0907.jpg	YN	Right	No	2.87276389999988	0	504407	252
987.23046875	2.87276389999988	health	choicePhaseStart	3	139	19	foodImage.99	FOODEEG_Images\0907.jpg	YN	Right	No	2.87276389999988	0	505463	253
990.09375	0	health	response	3	139	19	foodImage.99	FOODEEG_Images\0907.jpg	YN	Right	No	2.87276389999988	0	506929	235
991.13671875	1	decision	trialStart	3	140	20	foodImage.52	FOODEEG_Images\0539.jpg	YN	Left	Yes	1.2510699000004	0	507463	251
992.1953125	2	decision	foodImageDisplay	3	140	20	foodImage.52	FOODEEG_Images\0539.jpg	YN	Left	Yes	1.2510699000004	0	508005	252
994.259765625	1.2510699000004	decision	choicePhaseStart	3	140	20	foodImage.52	FOODEEG_Images\0539.jpg	YN	Left	Yes	1.2510699000004	0	509062	253
995.501953125	0	decision	response	3	140	20	foodImage.52	FOODEEG_Images\0539.jpg	YN	Left	Yes	1.2510699000004	0	509698	234
996.544921875	1	health	trialStart	3	141	21	foodImage.64	FOODEEG_Images\0647.jpg	YN	Right	No	1.02877880000051	0	510232	251
997.603515625	2	health	foodImageDisplay	3	141	21	foodImage.64	FOODEEG_Images\0647.jpg	YN	Right	No	1.02877880000051	0	510774	252
999.666015625	1.02877880000051	health	choicePhaseStart	3	141	21	foodImage.64	FOODEEG_Images\0647.jpg	YN	Right	No	1.02877880000051	0	511830	253
1000.685546875	0	health	response	3	141	21	foodImage.64	FOODEEG_Images\0647.jpg	YN	Right	No	1.02877880000051	0	512352	235
1001.728515625	1	taste	trialStart	3	142	22	foodImage.27	FOODEEG_Images\0263.jpg	YN	Right	No	1.03352259999974	0	512886	251
1002.779296875	2	taste	foodImageDisplay	3	142	22	foodImage.27	FOODEEG_Images\0263.jpg	YN	Right	No	1.03352259999974	0	513424	252
1004.84375	1.03352259999974	taste	choicePhaseStart	3	142	22	foodImage.27	FOODEEG_Images\0263.jpg	YN	Right	No	1.03352259999974	0	514481	253
1005.869140625	0	taste	response	3	142	22	foodImage.27	FOODEEG_Images\0263.jpg	YN	Right	No	1.03352259999974	0	515006	235
1006.912109375	1	health	trialStart	3	143	23	foodImage.43	FOODEEG_Images\0445.jpg	YN	Left	Yes	1.09944730000007	0	515540	251
1007.97265625	2	health	foodImageDisplay	3	143	23	foodImage.43	FOODEEG_Images\0445.jpg	YN	Left	Yes	1.09944730000007	0	516083	252
1010.03515625	1.09944730000007	health	choicePhaseStart	3	143	23	foodImage.43	FOODEEG_Images\0445.jpg	YN	Left	Yes	1.09944730000007	0	517139	253
1011.125	0	health	response	3	143	23	foodImage.43	FOODEEG_Images\0445.jpg	YN	Left	Yes	1.09944730000007	0	517697	234
1012.16796875	1	taste	trialStart	3	144	24	foodImage.39	FOODEEG_Images\0367.jpg	YN	Left	Yes	1.04702329999964	0	518231	251
1013.20703125	2	taste	foodImageDisplay	3	144	24	foodImage.39	FOODEEG_Images\0367.jpg	YN	Left	Yes	1.04702329999964	0	518763	252
1015.271484375	1.04702329999964	taste	choicePhaseStart	3	144	24	foodImage.39	FOODEEG_Images\0367.jpg	YN	Left	Yes	1.04702329999964	0	519820	253
1016.30859375	0	taste	response	3	144	24	foodImage.39	FOODEEG_Images\0367.jpg	YN	Left	Yes	1.04702329999964	0	520351	234
1017.3515625	1	health	trialStart	3	145	25	foodImage.56	FOODEEG_Images\0586.jpg	NY	Left	No	1.09766149999996	0	520885	251
1018.396484375	2	health	foodImageDisplay	3	145	25	foodImage.56	FOODEEG_Images\0586.jpg	NY	Left	No	1.09766149999996	0	521420	252
1020.458984375	1.09766149999996	health	choicePhaseStart	3	145	25	foodImage.56	FOODEEG_Images\0586.jpg	NY	Left	No	1.09766149999996	0	522476	253
1021.548828125	0	health	response	3	145	25	foodImage.56	FOODEEG_Images\0586.jpg	NY	Left	No	1.09766149999996	0	523034	234
1022.591796875	1	decision	trialStart	3	146	26	foodImage.91	FOODEEG_Images\0896.jpg	NY	Left	No	1.04467910000039	0	523568	251
1023.650390625	2	decision	foodImageDisplay	3	146	26	foodImage.91	FOODEEG_Images\0896.jpg	NY	Left	No	1.04467910000039	0	524110	252
1025.712890625	1.04467910000039	decision	choicePhaseStart	3	146	26	foodImage.91	FOODEEG_Images\0896.jpg	NY	Left	No	1.04467910000039	0	525166	253
1026.748046875	0	decision	response	3	146	26	foodImage.91	FOODEEG_Images\0896.jpg	NY	Left	No	1.04467910000039	0	525696	234
1027.791015625	1	taste	trialStart	3	147	27	foodImage.48	FOODEEG_Images\0494.jpg	YN	Right	No	1.77271220000057	0	526230	251
1028.833984375	2	taste	foodImageDisplay	3	147	27	foodImage.48	FOODEEG_Images\0494.jpg	YN	Right	No	1.77271220000057	0	526764	252
1030.896484375	1.77271220000057	taste	choicePhaseStart	3	147	27	foodImage.48	FOODEEG_Images\0494.jpg	YN	Right	No	1.77271220000057	0	527820	253
1032.66015625	0	taste	response	3	147	27	foodImage.48	FOODEEG_Images\0494.jpg	YN	Right	No	1.77271220000057	0	528723	235
1033.703125	1	decision	trialStart	3	148	28	foodImage.66	FOODEEG_Images\0676.jpg	YN	Right	No	1.16392670000005	0	529257	251
1034.744140625	2	decision	foodImageDisplay	3	148	28	foodImage.66	FOODEEG_Images\0676.jpg	YN	Right	No	1.16392670000005	0	529790	252
1036.806640625	1.16392670000005	decision	choicePhaseStart	3	148	28	foodImage.66	FOODEEG_Images\0676.jpg	YN	Right	No	1.16392670000005	0	530846	253
1037.96484375	0	decision	response	3	148	28	foodImage.66	FOODEEG_Images\0676.jpg	YN	Right	No	1.16392670000005	0	531439	235
1039.0078125	1	health	trialStart	3	149	29	foodImage.101	FOODEEG_Images\0909.jpg	NY	Left	No	1.10931299999993	0	531973	251
1040.048828125	2	health	foodImageDisplay	3	149	29	foodImage.101	FOODEEG_Images\0909.jpg	NY	Left	No	1.10931299999993	0	532506	252
1042.111328125	1.10931299999993	health	choicePhaseStart	3	149	29	foodImage.101	FOODEEG_Images\0909.jpg	NY	Left	No	1.10931299999993	0	533562	253
1043.2109375	0	health	response	3	149	29	foodImage.101	FOODEEG_Images\0909.jpg	NY	Left	No	1.10931299999993	0	534125	234
1044.255859375	1	health	trialStart	3	150	30	foodImage.82	FOODEEG_Images\0805.jpg	NY	Right	Yes	0.996610799999871	0	534660	251
1045.310546875	2	health	foodImageDisplay	3	150	30	foodImage.82	FOODEEG_Images\0805.jpg	NY	Right	Yes	0.996610799999871	0	535200	252
1047.376953125	0.996610799999871	health	choicePhaseStart	3	150	30	foodImage.82	FOODEEG_Images\0805.jpg	NY	Right	Yes	0.996610799999871	0	536258	253
1048.36328125	0	health	response	3	150	30	foodImage.82	FOODEEG_Images\0805.jpg	NY	Right	Yes	0.996610799999871	0	536763	235
1049.40625	1	taste	trialStart	3	151	31	foodImage.21	FOODEEG_Images\0234.jpg	YN	Left	Yes	1.21875649999947	0	537297	251
1050.466796875	2	taste	foodImageDisplay	3	151	31	foodImage.21	FOODEEG_Images\0234.jpg	YN	Left	Yes	1.21875649999947	0	537840	252
1052.53125	1.21875649999947	taste	choicePhaseStart	3	151	31	foodImage.21	FOODEEG_Images\0234.jpg	YN	Left	Yes	1.21875649999947	0	538897	253
1053.740234375	0	taste	response	3	151	31	foodImage.21	FOODEEG_Images\0234.jpg	YN	Left	Yes	1.21875649999947	0	539516	234
1054.783203125	1	health	trialStart	3	152	32	foodImage.1	FOODEEG_Images\0004.jpg	YN	Right	No	1.13852279999992	0	540050	251
1055.82421875	2	health	foodImageDisplay	3	152	32	foodImage.1	FOODEEG_Images\0004.jpg	YN	Right	No	1.13852279999992	0	540583	252
1057.88671875	1.13852279999992	health	choicePhaseStart	3	152	32	foodImage.1	FOODEEG_Images\0004.jpg	YN	Right	No	1.13852279999992	0	541639	253
1059.01953125	0	health	response	3	152	32	foodImage.1	FOODEEG_Images\0004.jpg	YN	Right	No	1.13852279999992	0	542219	235
1060.06640625	1	taste	trialStart	3	153	33	foodImage.103	FOODEEG_Images\0911.jpg	YN	Left	Yes	1.11360009999953	0	542755	251
1061.107421875	2	taste	foodImageDisplay	3	153	33	foodImage.103	FOODEEG_Images\0911.jpg	YN	Left	Yes	1.11360009999953	0	543288	252
1063.169921875	1.11360009999953	taste	choicePhaseStart	3	153	33	foodImage.103	FOODEEG_Images\0911.jpg	YN	Left	Yes	1.11360009999953	0	544344	253
1064.275390625	0	taste	response	3	153	33	foodImage.103	FOODEEG_Images\0911.jpg	YN	Left	Yes	1.11360009999953	0	544910	234
1065.318359375	1	decision	trialStart	3	154	34	foodImage.92	FOODEEG_Images\0900.jpg	YN	Right	No	1.1036780000004	0	545444	251
1066.357421875	2	decision	foodImageDisplay	3	154	34	foodImage.92	FOODEEG_Images\0900.jpg	YN	Right	No	1.1036780000004	0	545976	252
1068.421875	1.1036780000004	decision	choicePhaseStart	3	154	34	foodImage.92	FOODEEG_Images\0900.jpg	YN	Right	No	1.1036780000004	0	547033	253
1069.515625	0	decision	response	3	154	34	foodImage.92	FOODEEG_Images\0900.jpg	YN	Right	No	1.1036780000004	0	547593	235
1070.55859375	1	health	trialStart	3	155	35	foodImage.120	FOODEEG_Images\0928.jpg	YN	Right	No	0.93418229999952	0	548127	251
1071.599609375	2	health	foodImageDisplay	3	155	35	foodImage.120	FOODEEG_Images\0928.jpg	YN	Right	No	0.93418229999952	0	548660	252
1073.662109375	0.93418229999952	health	choicePhaseStart	3	155	35	foodImage.120	FOODEEG_Images\0928.jpg	YN	Right	No	0.93418229999952	0	549716	253
1074.5859375	0	health	response	3	155	35	foodImage.120	FOODEEG_Images\0928.jpg	YN	Right	No	0.93418229999952	0	550189	235
1075.630859375	1	decision	trialStart	3	156	36	foodImage.69	FOODEEG_Images\0693.jpg	NY	Left	No	1.0752566000001	0	550724	251
1076.671875	2	decision	foodImageDisplay	3	156	36	foodImage.69	FOODEEG_Images\0693.jpg	NY	Left	No	1.0752566000001	0	551257	252
1078.736328125	1.0752566000001	decision	choicePhaseStart	3	156	36	foodImage.69	FOODEEG_Images\0693.jpg	NY	Left	No	1.0752566000001	0	552314	253
1079.802734375	0	decision	response	3	156	36	foodImage.69	FOODEEG_Images\0693.jpg	NY	Left	No	1.0752566000001	0	552860	234
1080.845703125	1	taste	trialStart	3	157	37	foodImage.91	FOODEEG_Images\0896.jpg	NY	Left	No	1.20902109999952	0	553394	251
1081.904296875	2	taste	foodImageDisplay	3	157	37	foodImage.91	FOODEEG_Images\0896.jpg	NY	Left	No	1.20902109999952	0	553936	252
1083.970703125	1.20902109999952	taste	choicePhaseStart	3	157	37	foodImage.91	FOODEEG_Images\0896.jpg	NY	Left	No	1.20902109999952	0	554994	253
1085.169921875	0	taste	response	3	157	37	foodImage.91	FOODEEG_Images\0896.jpg	NY	Left	No	1.20902109999952	0	555608	234
1086.212890625	1	health	trialStart	3	158	38	foodImage.87	FOODEEG_Images\0873.jpg	YN	Left	Yes	0.924573600000258	0	556142	251
1087.271484375	2	health	foodImageDisplay	3	158	38	foodImage.87	FOODEEG_Images\0873.jpg	YN	Left	Yes	0.924573600000258	0	556684	252
1089.333984375	0.924573600000258	health	choicePhaseStart	3	158	38	foodImage.87	FOODEEG_Images\0873.jpg	YN	Left	Yes	0.924573600000258	0	557740	253
1090.25	0	health	response	3	158	38	foodImage.87	FOODEEG_Images\0873.jpg	YN	Left	Yes	0.924573600000258	0	558209	234
1091.296875	1	decision	trialStart	3	159	39	foodImage.39	FOODEEG_Images\0367.jpg	NY	Right	Yes	1.99551200000042	0	558745	251
1092.3359375	2	decision	foodImageDisplay	3	159	39	foodImage.39	FOODEEG_Images\0367.jpg	NY	Right	Yes	1.99551200000042	0	559277	252
1094.400390625	1.99551200000042	decision	choicePhaseStart	3	159	39	foodImage.39	FOODEEG_Images\0367.jpg	NY	Right	Yes	1.99551200000042	0	560334	253
1096.38671875	0	decision	response	3	159	39	foodImage.39	FOODEEG_Images\0367.jpg	NY	Right	Yes	1.99551200000042	0	561351	235
1097.427734375	1	taste	trialStart	3	160	40	foodImage.63	FOODEEG_Images\0645.jpg	NY	Right	Yes	1.13457539999945	0	561884	251
1098.46875	2	taste	foodImageDisplay	3	160	40	foodImage.63	FOODEEG_Images\0645.jpg	NY	Right	Yes	1.13457539999945	0	562417	252
1100.533203125	1.13457539999945	taste	choicePhaseStart	3	160	40	foodImage.63	FOODEEG_Images\0645.jpg	NY	Right	Yes	1.13457539999945	0	563474	253
1101.658203125	0	taste	response	3	160	40	foodImage.63	FOODEEG_Images\0645.jpg	NY	Right	Yes	1.13457539999945	0	564050	235
1102.701171875	1	decision	trialStart	3	161	41	foodImage.61	FOODEEG_Images\0640.jpg	NY	Right	Yes	1.2025593999997	0	564584	251
1103.744140625	2	decision	foodImageDisplay	3	161	41	foodImage.61	FOODEEG_Images\0640.jpg	NY	Right	Yes	1.2025593999997	0	565118	252
1105.806640625	1.2025593999997	decision	choicePhaseStart	3	161	41	foodImage.61	FOODEEG_Images\0640.jpg	NY	Right	Yes	1.2025593999997	0	566174	253
1107.001953125	0	decision	response	3	161	41	foodImage.61	FOODEEG_Images\0640.jpg	NY	Right	Yes	1.2025593999997	0	566786	235
1108.04296875	1	taste	trialStart	3	162	42	foodImage.120	FOODEEG_Images\0928.jpg	YN	Right	No	1.29410240000016	0	567319	251
1109.08984375	2	taste	foodImageDisplay	3	162	42	foodImage.120	FOODEEG_Images\0928.jpg	YN	Right	No	1.29410240000016	0	567855	252
1111.15625	1.29410240000016	taste	choicePhaseStart	3	162	42	foodImage.120	FOODEEG_Images\0928.jpg	YN	Right	No	1.29410240000016	0	568913	253
1112.44140625	0	taste	response	3	162	42	foodImage.120	FOODEEG_Images\0928.jpg	YN	Right	No	1.29410240000016	0	569571	235
1113.484375	1	decision	trialStart	3	163	43	foodImage.29	FOODEEG_Images\0278.jpg	YN	Right	No	1.20484469999974	0	570105	251
1114.525390625	2	decision	foodImageDisplay	3	163	43	foodImage.29	FOODEEG_Images\0278.jpg	YN	Right	No	1.20484469999974	0	570638	252
1116.58984375	1.20484469999974	decision	choicePhaseStart	3	163	43	foodImage.29	FOODEEG_Images\0278.jpg	YN	Right	No	1.20484469999974	0	571695	253
1117.78515625	0	decision	response	3	163	43	foodImage.29	FOODEEG_Images\0278.jpg	YN	Right	No	1.20484469999974	0	572307	235
1118.828125	1	decision	trialStart	3	164	44	foodImage.71	FOODEEG_Images\0713.jpg	YN	Right	No	1.18824630000017	0	572841	251
1119.88671875	2	decision	foodImageDisplay	3	164	44	foodImage.71	FOODEEG_Images\0713.jpg	YN	Right	No	1.18824630000017	0	573383	252
1121.94921875	1.18824630000017	decision	choicePhaseStart	3	164	44	foodImage.71	FOODEEG_Images\0713.jpg	YN	Right	No	1.18824630000017	0	574439	253
1123.12890625	0	decision	response	3	164	44	foodImage.71	FOODEEG_Images\0713.jpg	YN	Right	No	1.18824630000017	0	575043	235
1124.171875	1	taste	trialStart	3	165	45	foodImage.93	FOODEEG_Images\0901.jpg	YN	Left	Yes	2.43178199999966	0	575577	251
1125.2109375	2	taste	foodImageDisplay	3	165	45	foodImage.93	FOODEEG_Images\0901.jpg	YN	Left	Yes	2.43178199999966	0	576109	252
1127.2734375	2.43178199999966	taste	choicePhaseStart	3	165	45	foodImage.93	FOODEEG_Images\0901.jpg	YN	Left	Yes	2.43178199999966	0	577165	253
1129.697265625	0	taste	response	3	165	45	foodImage.93	FOODEEG_Images\0901.jpg	YN	Left	Yes	2.43178199999966	0	578406	234
1130.73828125	1	decision	trialStart	3	166	46	foodImage.101	FOODEEG_Images\0909.jpg	NY	Left	No	1.18583750000016	0	578939	251
1131.77734375	2	decision	foodImageDisplay	3	166	46	foodImage.101	FOODEEG_Images\0909.jpg	NY	Left	No	1.18583750000016	0	579471	252
1133.83984375	1.18583750000016	decision	choicePhaseStart	3	166	46	foodImage.101	FOODEEG_Images\0909.jpg	NY	Left	No	1.18583750000016	0	580527	253
1135.015625	0	decision	response	3	166	46	foodImage.101	FOODEEG_Images\0909.jpg	NY	Left	No	1.18583750000016	0	581129	234
1136.060546875	1	health	trialStart	3	167	47	foodImage.41	FOODEEG_Images\0409.jpg	NY	Right	Yes	1.17410159999963	0	581664	251
1137.109375	2	health	foodImageDisplay	3	167	47	foodImage.41	FOODEEG_Images\0409.jpg	NY	Right	Yes	1.17410159999963	0	582201	252
1139.177734375	1.17410159999963	health	choicePhaseStart	3	167	47	foodImage.41	FOODEEG_Images\0409.jpg	NY	Right	Yes	1.17410159999963	0	583260	253
1140.34375	0	health	response	3	167	47	foodImage.41	FOODEEG_Images\0409.jpg	NY	Right	Yes	1.17410159999963	0	583857	235
1141.39453125	1	health	trialStart	3	168	48	foodImage.36	FOODEEG_Images\0352.jpg	YN	Right	No	1.86399889999939	0	584395	251
1142.451171875	2	health	foodImageDisplay	3	168	48	foodImage.36	FOODEEG_Images\0352.jpg	YN	Right	No	1.86399889999939	0	584936	252
1144.513671875	1.86399889999939	health	choicePhaseStart	3	168	48	foodImage.36	FOODEEG_Images\0352.jpg	YN	Right	No	1.86399889999939	0	585992	253
1146.3671875	0	health	response	3	168	48	foodImage.36	FOODEEG_Images\0352.jpg	YN	Right	No	1.86399889999939	0	586941	235
1147.41015625	1	taste	trialStart	3	169	49	foodImage.99	FOODEEG_Images\0907.jpg	YN	Right	No	1.32002219999958	0	587475	251
1148.44921875	2	taste	foodImageDisplay	3	169	49	foodImage.99	FOODEEG_Images\0907.jpg	YN	Right	No	1.32002219999958	0	588007	252
1150.51171875	1.32002219999958	taste	choicePhaseStart	3	169	49	foodImage.99	FOODEEG_Images\0907.jpg	YN	Right	No	1.32002219999958	0	589063	253
1151.82421875	0	taste	response	3	169	49	foodImage.99	FOODEEG_Images\0907.jpg	YN	Right	No	1.32002219999958	0	589735	235
1152.8671875	1	decision	trialStart	3	170	50	foodImage.26	FOODEEG_Images\0262.jpg	NY	Left	No	1.4611759999998	0	590269	251
1153.908203125	2	decision	foodImageDisplay	3	170	50	foodImage.26	FOODEEG_Images\0262.jpg	NY	Left	No	1.4611759999998	0	590802	252
1155.970703125	1.4611759999998	decision	choicePhaseStart	3	170	50	foodImage.26	FOODEEG_Images\0262.jpg	NY	Left	No	1.4611759999998	0	591858	253
1157.423828125	0	decision	response	3	170	50	foodImage.26	FOODEEG_Images\0262.jpg	NY	Left	No	1.4611759999998	0	592602	234
1158.46484375	1	taste	trialStart	3	171	51	foodImage.17	FOODEEG_Images\0199.jpg	YN	Left	Yes	1.11359850000008	0	593135	251
1159.52734375	2	taste	foodImageDisplay	3	171	51	foodImage.17	FOODEEG_Images\0199.jpg	YN	Left	Yes	1.11359850000008	0	593679	252
1161.591796875	1.11359850000008	taste	choicePhaseStart	3	171	51	foodImage.17	FOODEEG_Images\0199.jpg	YN	Left	Yes	1.11359850000008	0	594736	253
1162.6953125	0	taste	response	3	171	51	foodImage.17	FOODEEG_Images\0199.jpg	YN	Left	Yes	1.11359850000008	0	595301	234
1163.73828125	1	health	trialStart	3	172	52	foodImage.114	FOODEEG_Images\0922.jpg	YN	Right	No	1.03172030000042	0	595835	251
1164.77734375	2	health	foodImageDisplay	3	172	52	foodImage.114	FOODEEG_Images\0922.jpg	YN	Right	No	1.03172030000042	0	596367	252
1166.83984375	1.03172030000042	health	choicePhaseStart	3	172	52	foodImage.114	FOODEEG_Images\0922.jpg	YN	Right	No	1.03172030000042	0	597423	253
1167.86328125	0	health	response	3	172	52	foodImage.114	FOODEEG_Images\0922.jpg	YN	Right	No	1.03172030000042	0	597947	235
1168.904296875	1	health	trialStart	3	173	53	foodImage.103	FOODEEG_Images\0911.jpg	NY	Left	No	1.36800709999989	0	598480	251
1169.943359375	2	health	foodImageDisplay	3	173	53	foodImage.103	FOODEEG_Images\0911.jpg	NY	Left	No	1.36800709999989	0	599012	252
1172.0078125	1.36800709999989	health	choicePhaseStart	3	173	53	foodImage.103	FOODEEG_Images\0911.jpg	NY	Left	No	1.36800709999989	0	600069	253
1173.3671875	0	health	response	3	173	53	foodImage.103	FOODEEG_Images\0911.jpg	NY	Left	No	1.36800709999989	0	600765	234
1174.41015625	1	health	trialStart	3	174	54	foodImage.65	FOODEEG_Images\0658.jpg	NY	Left	No	1.08434370000032	0	601299	251
1175.451171875	2	health	foodImageDisplay	3	174	54	foodImage.65	FOODEEG_Images\0658.jpg	NY	Left	No	1.08434370000032	0	601832	252
1177.515625	1.08434370000032	health	choicePhaseStart	3	174	54	foodImage.65	FOODEEG_Images\0658.jpg	NY	Left	No	1.08434370000032	0	602889	253
1178.58984375	0	health	response	3	174	54	foodImage.65	FOODEEG_Images\0658.jpg	NY	Left	No	1.08434370000032	0	603439	234
1179.6328125	1	decision	trialStart	3	175	55	foodImage.90	FOODEEG_Images\0890.jpg	YN	Right	No	1.14055219999955	0	603973	251
1180.69140625	2	decision	foodImageDisplay	3	175	55	foodImage.90	FOODEEG_Images\0890.jpg	YN	Right	No	1.14055219999955	0	604515	252
1182.755859375	1.14055219999955	decision	choicePhaseStart	3	175	55	foodImage.90	FOODEEG_Images\0890.jpg	YN	Right	No	1.14055219999955	0	605572	253
1183.88671875	0	decision	response	3	175	55	foodImage.90	FOODEEG_Images\0890.jpg	YN	Right	No	1.14055219999955	0	606151	235
1184.9296875	1	decision	trialStart	3	176	56	foodImage.49	FOODEEG_Images\0515.jpg	YN	Left	Yes	1.41541879999932	0	606685	251
1185.97265625	2	decision	foodImageDisplay	3	176	56	foodImage.49	FOODEEG_Images\0515.jpg	YN	Left	Yes	1.41541879999932	0	607219	252
1188.041015625	1.41541879999932	decision	choicePhaseStart	3	176	56	foodImage.49	FOODEEG_Images\0515.jpg	YN	Left	Yes	1.41541879999932	0	608278	253
1189.447265625	0	decision	response	3	176	56	foodImage.49	FOODEEG_Images\0515.jpg	YN	Left	Yes	1.41541879999932	0	608998	234
1190.490234375	1	taste	trialStart	3	177	57	foodImage.101	FOODEEG_Images\0909.jpg	NY	Left	No	1.46409719999974	0	609532	251
1191.529296875	2	taste	foodImageDisplay	3	177	57	foodImage.101	FOODEEG_Images\0909.jpg	NY	Left	No	1.46409719999974	0	610064	252
1193.591796875	1.46409719999974	taste	choicePhaseStart	3	177	57	foodImage.101	FOODEEG_Images\0909.jpg	NY	Left	No	1.46409719999974	0	611120	253
1195.046875	0	taste	response	3	177	57	foodImage.101	FOODEEG_Images\0909.jpg	NY	Left	No	1.46409719999974	0	611865	234
1196.08984375	1	decision	trialStart	3	178	58	foodImage.55	FOODEEG_Images\0567.jpg	YN	Right	No	1.15264579999985	0	612399	251
1197.173828125	2	decision	foodImageDisplay	3	178	58	foodImage.55	FOODEEG_Images\0567.jpg	YN	Right	No	1.15264579999985	0	612954	252
1199.236328125	1.15264579999985	decision	choicePhaseStart	3	178	58	foodImage.55	FOODEEG_Images\0567.jpg	YN	Right	No	1.15264579999985	0	614010	253
1200.380859375	0	decision	response	3	178	58	foodImage.55	FOODEEG_Images\0567.jpg	YN	Right	No	1.15264579999985	0	614596	235
1201.423828125	1	taste	trialStart	3	179	59	foodImage.88	FOODEEG_Images\0878.jpg	YN	Left	Yes	1.23999449999974	0	615130	251
1202.478515625	2	taste	foodImageDisplay	3	179	59	foodImage.88	FOODEEG_Images\0878.jpg	YN	Left	Yes	1.23999449999974	0	615670	252
1204.54296875	1.23999449999974	taste	choicePhaseStart	3	179	59	foodImage.88	FOODEEG_Images\0878.jpg	YN	Left	Yes	1.23999449999974	0	616727	253
1205.7734375	0	taste	response	3	179	59	foodImage.88	FOODEEG_Images\0878.jpg	YN	Left	Yes	1.23999449999974	0	617357	234
1206.818359375	1	taste	trialStart	3	180	60	foodImage.57	FOODEEG_Images\0587.jpg	YN	Right	No	1.0774835000002	0	617892	251
1207.8828125	2	taste	foodImageDisplay	3	180	60	foodImage.57	FOODEEG_Images\0587.jpg	YN	Right	No	1.0774835000002	0	618437	252
1209.9453125	1.0774835000002	taste	choicePhaseStart	3	180	60	foodImage.57	FOODEEG_Images\0587.jpg	YN	Right	No	1.0774835000002	0	619493	253
1211.013671875	0	taste	response	3	180	60	foodImage.57	FOODEEG_Images\0587.jpg	YN	Right	No	1.0774835000002	0	620040	235
1213.056640625	3.982421875	n/a	blockEnd	n/a	n/a	n/a	n/a	n/a	n/a	n/a	n/a	n/a	n/a	621086	254
1217.0390625	2	n/a	blockStart	4	n/a	n/a	n/a	n/a	n/a	n/a	n/a	n/a	n/a	623125	250
1219.072265625	1	taste	trialStart	4	181	1	foodImage.49	FOODEEG_Images\0515.jpg	YN	Left	Yes	1.95192560000032	0	624166	251
1220.11328125	2	taste	foodImageDisplay	4	181	1	foodImage.49	FOODEEG_Images\0515.jpg	YN	Left	Yes	1.95192560000032	0	624699	252
1222.177734375	1.95192560000032	taste	choicePhaseStart	4	181	1	foodImage.49	FOODEEG_Images\0515.jpg	YN	Left	Yes	1.95192560000032	0	625756	253
1224.125	0	taste	response	4	181	1	foodImage.49	FOODEEG_Images\0515.jpg	YN	Left	Yes	1.95192560000032	0	626753	234
1225.16796875	1	health	trialStart	4	182	2	foodImage.9	FOODEEG_Images\0138.jpg	YN	Right	No	1.27692040000056	0	627287	251
1226.2265625	2	health	foodImageDisplay	4	182	2	foodImage.9	FOODEEG_Images\0138.jpg	YN	Right	No	1.27692040000056	0	627829	252
1228.2890625	1.27692040000056	health	choicePhaseStart	4	182	2	foodImage.9	FOODEEG_Images\0138.jpg	YN	Right	No	1.27692040000056	0	628885	253
1229.556640625	0	health	response	4	182	2	foodImage.9	FOODEEG_Images\0138.jpg	YN	Right	No	1.27692040000056	0	629534	235
1230.60546875	1	taste	trialStart	4	183	3	foodImage.108	FOODEEG_Images\0916.jpg	NY	Left	No	1.1141434000001	0	630071	251
1231.642578125	2	taste	foodImageDisplay	4	183	3	foodImage.108	FOODEEG_Images\0916.jpg	NY	Left	No	1.1141434000001	0	630602	252
1233.70703125	1.1141434000001	taste	choicePhaseStart	4	183	3	foodImage.108	FOODEEG_Images\0916.jpg	NY	Left	No	1.1141434000001	0	631659	253
1234.8125	0	taste	response	4	183	3	foodImage.108	FOODEEG_Images\0916.jpg	NY	Left	No	1.1141434000001	0	632225	234
1235.85546875	1	health	trialStart	4	184	4	foodImage.20	FOODEEG_Images\0226.jpg	NY	Left	No	1.03410729999996	0	632759	251
1236.8984375	2	health	foodImageDisplay	4	184	4	foodImage.20	FOODEEG_Images\0226.jpg	NY	Left	No	1.03410729999996	0	633293	252
1238.962890625	1.03410729999996	health	choicePhaseStart	4	184	4	foodImage.20	FOODEEG_Images\0226.jpg	NY	Left	No	1.03410729999996	0	634350	253
1239.98828125	0	health	response	4	184	4	foodImage.20	FOODEEG_Images\0226.jpg	NY	Left	No	1.03410729999996	0	634875	234
1241.03125	1	health	trialStart	4	185	5	foodImage.63	FOODEEG_Images\0645.jpg	YN	Right	No	1.9850333000004	0	635409	251
1242.07421875	2	health	foodImageDisplay	4	185	5	foodImage.63	FOODEEG_Images\0645.jpg	YN	Right	No	1.9850333000004	0	635943	252
1244.140625	1.9850333000004	health	choicePhaseStart	4	185	5	foodImage.63	FOODEEG_Images\0645.jpg	YN	Right	No	1.9850333000004	0	637001	253
1246.115234375	0	health	response	4	185	5	foodImage.63	FOODEEG_Images\0645.jpg	YN	Right	No	1.9850333000004	0	638012	235
1247.158203125	1	taste	trialStart	4	186	6	foodImage.26	FOODEEG_Images\0262.jpg	YN	Right	No	1.13229809999939	0	638546	251
1248.201171875	2	taste	foodImageDisplay	4	186	6	foodImage.26	FOODEEG_Images\0262.jpg	YN	Right	No	1.13229809999939	0	639080	252
1250.263671875	1.13229809999939	taste	choicePhaseStart	4	186	6	foodImage.26	FOODEEG_Images\0262.jpg	YN	Right	No	1.13229809999939	0	640136	253
1251.38671875	0	taste	response	4	186	6	foodImage.26	FOODEEG_Images\0262.jpg	YN	Right	No	1.13229809999939	0	640711	235
1252.431640625	1	decision	trialStart	4	187	7	foodImage.53	FOODEEG_Images\0547.jpg	YN	Right	No	1.10905770000045	0	641246	251
1253.48828125	2	decision	foodImageDisplay	4	187	7	foodImage.53	FOODEEG_Images\0547.jpg	YN	Right	No	1.10905770000045	0	641787	252
1255.55078125	1.10905770000045	decision	choicePhaseStart	4	187	7	foodImage.53	FOODEEG_Images\0547.jpg	YN	Right	No	1.10905770000045	0	642843	253
1256.65234375	0	decision	response	4	187	7	foodImage.53	FOODEEG_Images\0547.jpg	YN	Right	No	1.10905770000045	0	643407	235
1257.701171875	1	taste	trialStart	4	188	8	foodImage.33	FOODEEG_Images\0329.jpg	YN	Right	No	1.97343409999939	0	643944	251
1258.7421875	2	taste	foodImageDisplay	4	188	8	foodImage.33	FOODEEG_Images\0329.jpg	YN	Right	No	1.97343409999939	0	644477	252
1260.806640625	1.97343409999939	taste	choicePhaseStart	4	188	8	foodImage.33	FOODEEG_Images\0329.jpg	YN	Right	No	1.97343409999939	0	645534	253
1262.771484375	0	taste	response	4	188	8	foodImage.33	FOODEEG_Images\0329.jpg	YN	Right	No	1.97343409999939	0	646540	235
1263.818359375	1	decision	trialStart	4	189	9	foodImage.120	FOODEEG_Images\0928.jpg	YN	Right	No	0.754469399999834	0	647076	251
1264.857421875	2	decision	foodImageDisplay	4	189	9	foodImage.120	FOODEEG_Images\0928.jpg	YN	Right	No	0.754469399999834	0	647608	252
1266.921875	0.754469399999834	decision	choicePhaseStart	4	189	9	foodImage.120	FOODEEG_Images\0928.jpg	YN	Right	No	0.754469399999834	0	648665	253
1267.66796875	0	decision	response	4	189	9	foodImage.120	FOODEEG_Images\0928.jpg	YN	Right	No	0.754469399999834	0	649047	235
1268.71484375	1	taste	trialStart	4	190	10	foodImage.16	FOODEEG_Images\0196.jpg	NY	Left	No	1.10293009999987	0	649583	251
1269.7734375	2	taste	foodImageDisplay	4	190	10	foodImage.16	FOODEEG_Images\0196.jpg	NY	Left	No	1.10293009999987	0	650125	252
1271.837890625	1.10293009999987	taste	choicePhaseStart	4	190	10	foodImage.16	FOODEEG_Images\0196.jpg	NY	Left	No	1.10293009999987	0	651182	253
1272.931640625	0	taste	response	4	190	10	foodImage.16	FOODEEG_Images\0196.jpg	NY	Left	No	1.10293009999987	0	651742	234
1273.974609375	1	taste	trialStart	4	191	11	foodImage.117	FOODEEG_Images\0925.jpg	YN	Right	No	1.06601769999997	0	652276	251
1275.013671875	2	taste	foodImageDisplay	4	191	11	foodImage.117	FOODEEG_Images\0925.jpg	YN	Right	No	1.06601769999997	0	652808	252
1277.08203125	1.06601769999997	taste	choicePhaseStart	4	191	11	foodImage.117	FOODEEG_Images\0925.jpg	YN	Right	No	1.06601769999997	0	653867	253
1278.138671875	0	taste	response	4	191	11	foodImage.117	FOODEEG_Images\0925.jpg	YN	Right	No	1.06601769999997	0	654408	235
1279.18359375	1	health	trialStart	4	192	12	foodImage.47	FOODEEG_Images\0488.jpg	NY	Left	No	0.89839370000027	0	654943	251
1280.224609375	2	health	foodImageDisplay	4	192	12	foodImage.47	FOODEEG_Images\0488.jpg	NY	Left	No	0.89839370000027	0	655476	252
1282.2890625	0.89839370000027	health	choicePhaseStart	4	192	12	foodImage.47	FOODEEG_Images\0488.jpg	NY	Left	No	0.89839370000027	0	656533	253
1283.1796875	0	health	response	4	192	12	foodImage.47	FOODEEG_Images\0488.jpg	NY	Left	No	0.89839370000027	0	656989	234
1284.22265625	1	health	trialStart	4	193	13	foodImage.78	FOODEEG_Images\0787.jpg	NY	Right	Yes	1.19201749999957	0	657523	251
1285.267578125	2	health	foodImageDisplay	4	193	13	foodImage.78	FOODEEG_Images\0787.jpg	NY	Right	Yes	1.19201749999957	0	658058	252
1287.33203125	1.19201749999957	health	choicePhaseStart	4	193	13	foodImage.78	FOODEEG_Images\0787.jpg	NY	Right	Yes	1.19201749999957	0	659115	253
1288.513671875	0	health	response	4	193	13	foodImage.78	FOODEEG_Images\0787.jpg	NY	Right	Yes	1.19201749999957	0	659720	235
1289.556640625	1	decision	trialStart	4	194	14	foodImage.56	FOODEEG_Images\0586.jpg	NY	Left	No	1.00446149999971	0	660254	251
1290.599609375	2	decision	foodImageDisplay	4	194	14	foodImage.56	FOODEEG_Images\0586.jpg	NY	Left	No	1.00446149999971	0	660788	252
1292.662109375	1.00446149999971	decision	choicePhaseStart	4	194	14	foodImage.56	FOODEEG_Images\0586.jpg	NY	Left	No	1.00446149999971	0	661844	253
1293.658203125	0	decision	response	4	194	14	foodImage.56	FOODEEG_Images\0586.jpg	NY	Left	No	1.00446149999971	0	662354	234
1294.701171875	1	health	trialStart	4	195	15	foodImage.113	FOODEEG_Images\0921.jpg	YN	Right	No	1.45624700000008	0	662888	251
1295.740234375	2	health	foodImageDisplay	4	195	15	foodImage.113	FOODEEG_Images\0921.jpg	YN	Right	No	1.45624700000008	0	663420	252
1297.802734375	1.45624700000008	health	choicePhaseStart	4	195	15	foodImage.113	FOODEEG_Images\0921.jpg	YN	Right	No	1.45624700000008	0	664476	253
1299.25	0	health	response	4	195	15	foodImage.113	FOODEEG_Images\0921.jpg	YN	Right	No	1.45624700000008	0	665217	235
1300.29296875	1	taste	trialStart	4	196	16	foodImage.20	FOODEEG_Images\0226.jpg	NY	Right	Yes	1.7644006999999	0	665751	251
