onset	duration	trial_type	event_type	block	trial_total	trial_in_block	food_image_code	food_image_path	button_position	resp_position	resp_choice	choice_rt	resp_too_slow	sample	trigger
277.234375	2	n/a	blockStart	1	n/a	n/a	n/a	n/a	n/a	n/a	n/a	n/a	n/a	141945	250
279.271484375	1	decision	trialStart	1	1	1	foodImage.92	FOODEEG_Images\0900.jpg	NY	Left	No	1.01850809995085	0	142988	251
280.3125	2	decision	foodImageDisplay	1	1	1	foodImage.92	FOODEEG_Images\0900.jpg	NY	Left	No	1.01850809995085	0	143521	252
282.37890625	1.01850809995085	decision	choicePhaseStart	1	1	1	foodImage.92	FOODEEG_Images\0900.jpg	NY	Left	No	1.01850809995085	0	144579	253
283.392578125	0	decision	response	1	1	1	foodImage.92	FOODEEG_Images\0900.jpg	NY	Left	No	1.01850809995085	0	145098	234
284.48828125	1	decision	trialStart	1	2	2	foodImage.2	FOODEEG_Images\0028.jpg	NY	Right	Yes	0.749794800300151	0	145659	251
285.53125	2	decision	foodImageDisplay	1	2	2	foodImage.2	FOODEEG_Images\0028.jpg	NY	Right	Yes	0.749794800300151	0	146193	252
287.59375	0.749794800300151	decision	choicePhaseStart	1	2	2	foodImage.2	FOODEEG_Images\0028.jpg	NY	Right	Yes	0.749794800300151	0	147249	253
288.3359375	0	decision	response	1	2	2	foodImage.2	FOODEEG_Images\0028.jpg	NY	Right	Yes	0.749794800300151	0	147629	235
289.38671875	1	decision	trialStart	1	3	3	foodImage.91	FOODEEG_Images\0896.jpg	YN	Left	Yes	1.44240210019052	0	148167	251
290.4453125	2	decision	foodImageDisplay	1	3	3	foodImage.91	FOODEEG_Images\0896.jpg	YN	Left	Yes	1.44240210019052	0	148709	252
292.509765625	1.44240210019052	decision	choicePhaseStart	1	3	3	foodImage.91	FOODEEG_Images\0896.jpg	YN	Left	Yes	1.44240210019052	0	149766	253
293.943359375	0	decision	response	1	3	3	foodImage.91	FOODEEG_Images\0896.jpg	YN	Left	Yes	1.44240210019052	0	150500	234
294.984375	1	decision	trialStart	1	4	4	foodImage.1	FOODEEG_Images\0004.jpg	YN	Right	No	1.0633533000946	0	151033	251
296.033203125	2	decision	foodImageDisplay	1	4	4	foodImage.1	FOODEEG_Images\0004.jpg	YN	Right	No	1.0633533000946	0	151570	252
298.095703125	1.0633533000946	decision	choicePhaseStart	1	4	4	foodImage.1	FOODEEG_Images\0004.jpg	YN	Right	No	1.0633533000946	0	152626	253
299.150390625	0	decision	response	1	4	4	foodImage.1	FOODEEG_Images\0004.jpg	YN	Right	No	1.0633533000946	0	153166	235
300.19921875	1	taste	trialStart	1	5	5	foodImage.32	FOODEEG_Images\0319.jpg	NY	Right	Yes	0.961349899880588	0	153703	251
301.244140625	2	taste	foodImageDisplay	1	5	5	foodImage.32	FOODEEG_Images\0319.jpg	NY	Right	Yes	0.961349899880588	0	154238	252
303.30859375	0.961349899880588	taste	choicePhaseStart	1	5	5	foodImage.32	FOODEEG_Images\0319.jpg	NY	Right	Yes	0.961349899880588	0	155295	253
304.26171875	0	taste	response	1	5	5	foodImage.32	FOODEEG_Images\0319.jpg	NY	Right	Yes	0.961349899880588	0	155783	235
305.314453125	1	health	trialStart	1	6	6	foodImage.4	FOODEEG_Images\0065.jpg	YN	Right	No	1.69201540015638	0	156322	251
306.396484375	2	health	foodImageDisplay	1	6	6	foodImage.4	FOODEEG_Images\0065.jpg	YN	Right	No	1.69201540015638	0	156876	252
308.458984375	1.69201540015638	health	choicePhaseStart	1	6	6	foodImage.4	FOODEEG_Images\0065.jpg	YN	Right	No	1.69201540015638	0	157932	253
310.142578125	0	health	response	1	6	6	foodImage.4	FOODEEG_Images\0065.jpg	YN	Right	No	1.69201540015638	0	158794	235
311.1875	1	decision	trialStart	1	7	7	foodImage.93	FOODEEG_Images\0901.jpg	NY	Left	No	0.651748100295663	0	159329	251
312.2265625	2	decision	foodImageDisplay	1	7	7	foodImage.93	FOODEEG_Images\0901.jpg	NY	Left	No	0.651748100295663	0	159861	252
314.2890625	0.651748100295663	decision	choicePhaseStart	1	7	7	foodImage.93	FOODEEG_Images\0901.jpg	NY	Left	No	0.651748100295663	0	160917	253
314.93359375	0	decision	response	1	7	7	foodImage.93	FOODEEG_Images\0901.jpg	NY	Left	No	0.651748100295663	0	161247	234
315.978515625	1	health	trialStart	1	8	8	foodImage.68	FOODEEG_Images\0685.jpg	YN	Right	No	1.50885149976239	0	161782	251
317.056640625	2	health	foodImageDisplay	1	8	8	foodImage.68	FOODEEG_Images\0685.jpg	YN	Right	No	1.50885149976239	0	162334	252
319.119140625	1.50885149976239	health	choicePhaseStart	1	8	8	foodImage.68	FOODEEG_Images\0685.jpg	YN	Right	No	1.50885149976239	0	163390	253
320.623046875	0	health	response	1	8	8	foodImage.68	FOODEEG_Images\0685.jpg	YN	Right	No	1.50885149976239	0	164160	235
321.666015625	1	decision	trialStart	1	9	9	foodImage.89	FOODEEG_Images\0881.jpg	YN	Right	No	1.03865229990333	0	164694	251
322.724609375	2	decision	foodImageDisplay	1	9	9	foodImage.89	FOODEEG_Images\0881.jpg	YN	Right	No	1.03865229990333	0	165236	252
324.7890625	1.03865229990333	decision	choicePhaseStart	1	9	9	foodImage.89	FOODEEG_Images\0881.jpg	YN	Right	No	1.03865229990333	0	166293	253
325.822265625	0	decision	response	1	9	9	foodImage.89	FOODEEG_Images\0881.jpg	YN	Right	No	1.03865229990333	0	166822	235
326.861328125	1	decision	trialStart	1	10	10	foodImage.106	FOODEEG_Images\0914.jpg	NY	Left	No	0.858716099988669	0	167354	251
327.900390625	2	decision	foodImageDisplay	1	10	10	foodImage.106	FOODEEG_Images\0914.jpg	NY	Left	No	0.858716099988669	0	167886	252
329.962890625	0.858716099988669	decision	choicePhaseStart	1	10	10	foodImage.106	FOODEEG_Images\0914.jpg	NY	Left	No	0.858716099988669	0	168942	253
330.814453125	0	decision	response	1	10	10	foodImage.106	FOODEEG_Images\0914.jpg	NY	Left	No	0.858716099988669	0	169378	234
331.857421875	1	taste	trialStart	1	11	11	foodImage.89	FOODEEG_Images\0881.jpg	YN	Left	Yes	2.27852470008656	0	169912	251
332.912109375	2	taste	foodImageDisplay	1	11	11	foodImage.89	FOODEEG_Images\0881.jpg	YN	Left	Yes	2.27852470008656	0	170452	252
334.974609375	2.27852470008656	taste	choicePhaseStart	1	11	11	foodImage.89	FOODEEG_Images\0881.jpg	YN	Left	Yes	2.27852470008656	0	171508	253
337.24609375	0	taste	response	1	11	11	foodImage.89	FOODEEG_Images\0881.jpg	YN	Left	Yes	2.27852470008656	0	172671	234
338.291015625	1	taste	trialStart	1	12	12	foodImage.112	FOODEEG_Images\0920.jpg	YN	Right	No	0.734984899871051	0	173206	251
339.328125	2	taste	foodImageDisplay	1	12	12	foodImage.112	FOODEEG_Images\0920.jpg	YN	Right	No	0.734984899871051	0	173737	252
341.390625	0.734984899871051	taste	choicePhaseStart	1	12	12	foodImage.112	FOODEEG_Images\0920.jpg	YN	Right	No	0.734984899871051	0	174793	253
342.1171875	0	taste	response	1	12	12	foodImage.112	FOODEEG_Images\0920.jpg	YN	Right	No	0.734984899871051	0	175165	235
343.16015625	1	health	trialStart	1	13	13	foodImage.1	FOODEEG_Images\0004.jpg	YN	Right	No	0.913907200098038	0	175699	251
344.220703125	2	health	foodImageDisplay	1	13	13	foodImage.1	FOODEEG_Images\0004.jpg	YN	Right	No	0.913907200098038	0	176242	252
346.28515625	0.913907200098038	health	choicePhaseStart	1	13	13	foodImage.1	FOODEEG_Images\0004.jpg	YN	Right	No	0.913907200098038	0	177299	253
347.189453125	0	health	response	1	13	13	foodImage.1	FOODEEG_Images\0004.jpg	YN	Right	No	0.913907200098038	0	177762	235
348.232421875	1	taste	trialStart	1	14	14	foodImage.74	FOODEEG_Images\0752.jpg	YN	Left	Yes	0.601205800194293	0	178296	251
349.27734375	2	taste	foodImageDisplay	1	14	14	foodImage.74	FOODEEG_Images\0752.jpg	YN	Left	Yes	0.601205800194293	0	178831	252
351.33984375	0.601205800194293	taste	choicePhaseStart	1	14	14	foodImage.74	FOODEEG_Images\0752.jpg	YN	Left	Yes	0.601205800194293	0	179887	253
351.931640625	0	taste	response	1	14	14	foodImage.74	FOODEEG_Images\0752.jpg	YN	Left	Yes	0.601205800194293	0	180190	234
352.9765625	1	health	trialStart	1	15	15	foodImage.66	FOODEEG_Images\0676.jpg	NY	Left	No	1.16576670017093	0	180725	251
354.017578125	2	health	foodImageDisplay	1	15	15	foodImage.66	FOODEEG_Images\0676.jpg	NY	Left	No	1.16576670017093	0	181258	252
356.080078125	1.16576670017093	health	choicePhaseStart	1	15	15	foodImage.66	FOODEEG_Images\0676.jpg	NY	Left	No	1.16576670017093	0	182314	253
357.236328125	0	health	response	1	15	15	foodImage.66	FOODEEG_Images\0676.jpg	NY	Left	No	1.16576670017093	0	182906	234
358.279296875	1	taste	trialStart	1	16	16	foodImage.116	FOODEEG_Images\0924.jpg	YN	Right	No	0.687786800321192	0	183440	251
359.31640625	2	taste	foodImageDisplay	1	16	16	foodImage.116	FOODEEG_Images\0924.jpg	YN	Right	No	0.687786800321192	0	183971	252
361.380859375	0.687786800321192	taste	choicePhaseStart	1	16	16	foodImage.116	FOODEEG_Images\0924.jpg	YN	Right	No	0.687786800321192	0	185028	253
362.060546875	0	taste	response	1	16	16	foodImage.116	FOODEEG_Images\0924.jpg	YN	Right	No	0.687786800321192	0	185376	235
363.103515625	1	taste	trialStart	1	17	17	foodImage.42	FOODEEG_Images\0438.jpg	YN	Left	Yes	1.72587489988655	0	185910	251
364.193359375	2	taste	foodImageDisplay	1	17	17	foodImage.42	FOODEEG_Images\0438.jpg	YN	Left	Yes	1.72587489988655	0	186468	252
366.255859375	1.72587489988655	taste	choicePhaseStart	1	17	17	foodImage.42	FOODEEG_Images\0438.jpg	YN	Left	Yes	1.72587489988655	0	187524	253
367.97265625	0	taste	response	1	17	17	foodImage.42	FOODEEG_Images\0438.jpg	YN	Left	Yes	1.72587489988655	0	188403	234
369.013671875	1	taste	trialStart	1	18	18	foodImage.86	FOODEEG_Images\0844.jpg	NY	Right	Yes	0.597652700264007	0	188936	251
370.08984375	2	taste	foodImageDisplay	1	18	18	foodImage.86	FOODEEG_Images\0844.jpg	NY	Right	Yes	0.597652700264007	0	189487	252
372.15234375	0.597652700264007	taste	choicePhaseStart	1	18	18	foodImage.86	FOODEEG_Images\0844.jpg	NY	Right	Yes	0.597652700264007	0	190543	253
372.740234375	0	taste	response	1	18	18	foodImage.86	FOODEEG_Images\0844.jpg	NY	Right	Yes	0.597652700264007	0	190844	235
373.78125	1	decision	trialStart	1	19	19	foodImage.84	FOODEEG_Images\0830.jpg	YN	Left	Yes	0.880217300262302	0	191377	251
374.837890625	2	decision	foodImageDisplay	1	19	19	foodImage.84	FOODEEG_Images\0830.jpg	YN	Left	Yes	0.880217300262302	0	191918	252
376.900390625	0.880217300262302	decision	choicePhaseStart	1	19	19	foodImage.84	FOODEEG_Images\0830.jpg	YN	Left	Yes	0.880217300262302	0	192974	253
377.771484375	0	decision	response	1	19	19	foodImage.84	FOODEEG_Images\0830.jpg	YN	Left	Yes	0.880217300262302	0	193420	234
378.8125	1	decision	trialStart	1	20	20	foodImage.5	FOODEEG_Images\0107.jpg	NY	Right	Yes	1.43356089992449	0	193953	251
379.876953125	2	decision	foodImageDisplay	1	20	20	foodImage.5	FOODEEG_Images\0107.jpg	NY	Right	Yes	1.43356089992449	0	194498	252
381.939453125	1.43356089992449	decision	choicePhaseStart	1	20	20	foodImage.5	FOODEEG_Images\0107.jpg	NY	Right	Yes	1.43356089992449	0	195554	253
383.36328125	0	decision	response	1	20	20	foodImage.5	FOODEEG_Images\0107.jpg	NY	Right	Yes	1.43356089992449	0	196283	235
384.40625	1	taste	trialStart	1	21	21	foodImage.67	FOODEEG_Images\0679.jpg	YN	Left	Yes	1.69265249976888	0	196817	251
385.46484375	2	taste	foodImageDisplay	1	21	21	foodImage.67	FOODEEG_Images\0679.jpg	YN	Left	Yes	1.69265249976888	0	197359	252
387.52734375	1.69265249976888	taste	choicePhaseStart	1	21	21	foodImage.67	FOODEEG_Images\0679.jpg	YN	Left	Yes	1.69265249976888	0	198415	253
389.2109375	0	taste	response	1	21	21	foodImage.67	FOODEEG_Images\0679.jpg	YN	Left	Yes	1.69265249976888	0	199277	234
390.259765625	1	health	trialStart	1	22	22	foodImage.9	FOODEEG_Images\0138.jpg	NY	Left	No	0.914555400144309	0	199814	251
391.322265625	2	health	foodImageDisplay	1	22	22	foodImage.9	FOODEEG_Images\0138.jpg	NY	Left	No	0.914555400144309	0	200358	252
393.384765625	0.914555400144309	health	choicePhaseStart	1	22	22	foodImage.9	FOODEEG_Images\0138.jpg	NY	Left	No	0.914555400144309	0	201414	253
394.291015625	0	health	response	1	22	22	foodImage.9	FOODEEG_Images\0138.jpg	NY	Left	No	0.914555400144309	0	201878	234
395.35546875	1	health	trialStart	1	23	23	foodImage.10	FOODEEG_Images\0145.jpg	NY	Left	No	1.94516470003873	0	202423	251
396.412109375	2	health	foodImageDisplay	1	23	23	foodImage.10	FOODEEG_Images\0145.jpg	NY	Left	No	1.94516470003873	0	202964	252
398.474609375	1.94516470003873	health	choicePhaseStart	1	23	23	foodImage.10	FOODEEG_Images\0145.jpg	NY	Left	No	1.94516470003873	0	204020	253
400.41015625	0	health	response	1	23	23	foodImage.10	FOODEEG_Images\0145.jpg	NY	Left	No	1.94516470003873	0	205011	234
401.45703125	1	health	trialStart	1	24	24	foodImage.96	FOODEEG_Images\0904.jpg	YN	Left	Yes	1.77430110005662	0	205547	251
402.49609375	2	health	foodImageDisplay	1	24	24	foodImage.96	FOODEEG_Images\0904.jpg	YN	Left	Yes	1.77430110005662	0	206079	252
404.55859375	1.77430110005662	health	choicePhaseStart	1	24	24	foodImage.96	FOODEEG_Images\0904.jpg	YN	Left	Yes	1.77430110005662	0	207135	253
406.322265625	0	health	response	1	24	24	foodImage.96	FOODEEG_Images\0904.jpg	YN	Left	Yes	1.77430110005662	0	208038	234
407.369140625	1	decision	trialStart	1	25	25	foodImage.50	FOODEEG_Images\0529.jpg	YN	Right	No	1.02720429981127	0	208574	251
408.42578125	2	decision	foodImageDisplay	1	25	25	foodImage.50	FOODEEG_Images\0529.jpg	YN	Right	No	1.02720429981127	0	209115	252
410.48828125	1.02720429981127	decision	choicePhaseStart	1	25	25	foodImage.50	FOODEEG_Images\0529.jpg	YN	Right	No	1.02720429981127	0	210171	253
411.505859375	0	decision	response	1	25	25	foodImage.50	FOODEEG_Images\0529.jpg	YN	Right	No	1.02720429981127	0	210692	235
412.55078125	1	decision	trialStart	1	26	26	foodImage.38	FOODEEG_Images\0365.jpg	YN	Right	No	1.62405230011791	0	211227	251
413.587890625	2	decision	foodImageDisplay	1	26	26	foodImage.38	FOODEEG_Images\0365.jpg	YN	Right	No	1.62405230011791	0	211758	252
415.650390625	1.62405230011791	decision	choicePhaseStart	1	26	26	foodImage.38	FOODEEG_Images\0365.jpg	YN	Right	No	1.62405230011791	0	212814	253
417.265625	0	decision	response	1	26	26	foodImage.38	FOODEEG_Images\0365.jpg	YN	Right	No	1.62405230011791	0	213641	235
418.310546875	1	health	trialStart	1	27	27	foodImage.94	FOODEEG_Images\0902.jpg	NY	Left	No	1.23306010011584	0	214176	251
419.34765625	2	health	foodImageDisplay	1	27	27	foodImage.94	FOODEEG_Images\0902.jpg	NY	Left	No	1.23306010011584	0	214707	252
421.41015625	1.23306010011584	health	choicePhaseStart	1	27	27	foodImage.94	FOODEEG_Images\0902.jpg	NY	Left	No	1.23306010011584	0	215763	253
422.634765625	0	health	response	1	27	27	foodImage.94	FOODEEG_Images\0902.jpg	NY	Left	No	1.23306010011584	0	216390	234
423.677734375	1	decision	trialStart	1	28	28	foodImage.100	FOODEEG_Images\0908.jpg	YN	Right	No	0.919687400106341	0	216924	251
424.732421875	2	decision	foodImageDisplay	1	28	28	foodImage.100	FOODEEG_Images\0908.jpg	YN	Right	No	0.919687400106341	0	217464	252
426.794921875	0.919687400106341	decision	choicePhaseStart	1	28	28	foodImage.100	FOODEEG_Images\0908.jpg	YN	Right	No	0.919687400106341	0	218520	253
427.705078125	0	decision	response	1	28	28	foodImage.100	FOODEEG_Images\0908.jpg	YN	Right	No	0.919687400106341	0	218986	235
428.748046875	1	health	trialStart	1	29	29	foodImage.99	FOODEEG_Images\0907.jpg	YN	Right	No	1.22622389998287	0	219520	251
429.787109375	2	health	foodImageDisplay	1	29	29	foodImage.99	FOODEEG_Images\0907.jpg	YN	Right	No	1.22622389998287	0	220052	252
431.849609375	1.22622389998287	health	choicePhaseStart	1	29	29	foodImage.99	FOODEEG_Images\0907.jpg	YN	Right	No	1.22622389998287	0	221108	253
433.06640625	0	health	response	1	29	29	foodImage.99	FOODEEG_Images\0907.jpg	YN	Right	No	1.22622389998287	0	221731	235
434.109375	1	taste	trialStart	1	30	30	foodImage.77	FOODEEG_Images\0771.jpg	NY	Right	Yes	0.820214900188148	0	222265	251
435.15234375	2	taste	foodImageDisplay	1	30	30	foodImage.77	FOODEEG_Images\0771.jpg	NY	Right	Yes	0.820214900188148	0	222799	252
437.21484375	0.820214900188148	taste	choicePhaseStart	1	30	30	foodImage.77	FOODEEG_Images\0771.jpg	NY	Right	Yes	0.820214900188148	0	223855	253
438.025390625	0	taste	response	1	30	30	foodImage.77	FOODEEG_Images\0771.jpg	NY	Right	Yes	0.820214900188148	0	224270	235
439.064453125	1	decision	trialStart	1	31	31	foodImage.120	FOODEEG_Images\0928.jpg	NY	Left	No	0.663202599622309	0	224802	251
440.1015625	2	decision	foodImageDisplay	1	31	31	foodImage.120	FOODEEG_Images\0928.jpg	NY	Left	No	0.663202599622309	0	225333	252
442.1640625	0.663202599622309	decision	choicePhaseStart	1	31	31	foodImage.120	FOODEEG_Images\0928.jpg	NY	Left	No	0.663202599622309	0	226389	253
442.81640625	0	decision	response	1	31	31	foodImage.120	FOODEEG_Images\0928.jpg	NY	Left	No	0.663202599622309	0	226723	234
443.859375	1	taste	trialStart	1	32	32	foodImage.94	FOODEEG_Images\0902.jpg	YN	Right	No	1.21923299971968	0	227257	251
444.896484375	2	taste	foodImageDisplay	1	32	32	foodImage.94	FOODEEG_Images\0902.jpg	YN	Right	No	1.21923299971968	0	227788	252
446.958984375	1.21923299971968	taste	choicePhaseStart	1	32	32	foodImage.94	FOODEEG_Images\0902.jpg	YN	Right	No	1.21923299971968	0	228844	253
448.169921875	0	taste	response	1	32	32	foodImage.94	FOODEEG_Images\0902.jpg	YN	Right	No	1.21923299971968	0	229464	235
449.21484375	1	decision	trialStart	1	33	33	foodImage.4	FOODEEG_Images\0065.jpg	YN	Right	No	0.819699800107628	0	229999	251
450.271484375	2	decision	foodImageDisplay	1	33	33	foodImage.4	FOODEEG_Images\0065.jpg	YN	Right	No	0.819699800107628	0	230540	252
452.333984375	0.819699800107628	decision	choicePhaseStart	1	33	33	foodImage.4	FOODEEG_Images\0065.jpg	YN	Right	No	0.819699800107628	0	231596	253
453.14453125	0	decision	response	1	33	33	foodImage.4	FOODEEG_Images\0065.jpg	YN	Right	No	0.819699800107628	0	232011	235
454.185546875	1	health	trialStart	1	34	34	foodImage.19	FOODEEG_Images\0225.jpg	YN	Right	No	0.961204200051725	0	232544	251
455.2265625	2	health	foodImageDisplay	1	34	34	foodImage.19	FOODEEG_Images\0225.jpg	YN	Right	No	0.961204200051725	0	233077	252
457.2890625	0.961204200051725	health	choicePhaseStart	1	34	34	foodImage.19	FOODEEG_Images\0225.jpg	YN	Right	No	0.961204200051725	0	234133	253
458.240234375	0	health	response	1	34	34	foodImage.19	FOODEEG_Images\0225.jpg	YN	Right	No	0.961204200051725	0	234620	235
459.28125	1	health	trialStart	1	35	35	foodImage.103	FOODEEG_Images\0911.jpg	YN	Right	No	0.625500800088048	0	235153	251
460.3203125	2	health	foodImageDisplay	1	35	35	foodImage.103	FOODEEG_Images\0911.jpg	YN	Right	No	0.625500800088048	0	235685	252
462.3828125	0.625500800088048	health	choicePhaseStart	1	35	35	foodImage.103	FOODEEG_Images\0911.jpg	YN	Right	No	0.625500800088048	0	236741	253
463	0	health	response	1	35	35	foodImage.103	FOODEEG_Images\0911.jpg	YN	Right	No	0.625500800088048	0	237057	235
464.041015625	1	health	trialStart	1	36	36	foodImage.11	FOODEEG_Images\0180.jpg	YN	Right	No	1.13760989997536	0	237590	251
465.08203125	2	health	foodImageDisplay	1	36	36	foodImage.11	FOODEEG_Images\0180.jpg	YN	Right	No	1.13760989997536	0	238123	252
467.14453125	1.13760989997536	health	choicePhaseStart	1	36	36	foodImage.11	FOODEEG_Images\0180.jpg	YN	Right	No	1.13760989997536	0	239179	253
468.271484375	0	health	response	1	36	36	foodImage.11	FOODEEG_Images\0180.jpg	YN	Right	No	1.13760989997536	0	239756	235
469.3125	1	health	trialStart	1	37	37	foodImage.84	FOODEEG_Images\0830.jpg	YN	Left	Yes	0.945619800128043	0	240289	251
470.39453125	2	health	foodImageDisplay	1	37	37	foodImage.84	FOODEEG_Images\0830.jpg	YN	Left	Yes	0.945619800128043	0	240843	252
472.45703125	0.945619800128043	health	choicePhaseStart	1	37	37	foodImage.84	FOODEEG_Images\0830.jpg	YN	Left	Yes	0.945619800128043	0	241899	253
473.392578125	0	health	response	1	37	37	foodImage.84	FOODEEG_Images\0830.jpg	YN	Left	Yes	0.945619800128043	0	242378	234
474.435546875	1	decision	trialStart	1	38	38	foodImage.39	FOODEEG_Images\0367.jpg	NY	Right	Yes	1.00812120037153	0	242912	251
475.47265625	2	decision	foodImageDisplay	1	38	38	foodImage.39	FOODEEG_Images\0367.jpg	NY	Right	Yes	1.00812120037153	0	243443	252
477.53515625	1.00812120037153	decision	choicePhaseStart	1	38	38	foodImage.39	FOODEEG_Images\0367.jpg	NY	Right	Yes	1.00812120037153	0	244499	253
478.53515625	0	decision	response	1	38	38	foodImage.39	FOODEEG_Images\0367.jpg	NY	Right	Yes	1.00812120037153	0	245011	235
479.578125	1	health	trialStart	1	39	39	foodImage.8	FOODEEG_Images\0136.jpg	YN	Right	No	0.780395800247788	0	245545	251
480.62109375	2	health	foodImageDisplay	1	39	39	foodImage.8	FOODEEG_Images\0136.jpg	YN	Right	No	0.780395800247788	0	246079	252
482.68359375	0.780395800247788	health	choicePhaseStart	1	39	39	foodImage.8	FOODEEG_Images\0136.jpg	YN	Right	No	0.780395800247788	0	247135	253
483.455078125	0	health	response	1	39	39	foodImage.8	FOODEEG_Images\0136.jpg	YN	Right	No	0.780395800247788	0	247530	235
484.498046875	1	decision	trialStart	1	40	40	foodImage.20	FOODEEG_Images\0226.jpg	YN	Right	No	1.14880480011925	0	248064	251
485.541015625	2	decision	foodImageDisplay	1	40	40	foodImage.20	FOODEEG_Images\0226.jpg	YN	Right	No	1.14880480011925	0	248598	252
487.603515625	1.14880480011925	decision	choicePhaseStart	1	40	40	foodImage.20	FOODEEG_Images\0226.jpg	YN	Right	No	1.14880480011925	0	249654	253
488.744140625	0	decision	response	1	40	40	foodImage.20	FOODEEG_Images\0226.jpg	YN	Right	No	1.14880480011925	0	250238	235
489.787109375	1	decision	trialStart	1	41	41	foodImage.27	FOODEEG_Images\0263.jpg	YN	Left	Yes	1.24379500001669	0	250772	251
490.830078125	2	decision	foodImageDisplay	1	41	41	foodImage.27	FOODEEG_Images\0263.jpg	YN	Left	Yes	1.24379500001669	0	251306	252
492.892578125	1.24379500001669	decision	choicePhaseStart	1	41	41	foodImage.27	FOODEEG_Images\0263.jpg	YN	Left	Yes	1.24379500001669	0	252362	253
494.126953125	0	decision	response	1	41	41	foodImage.27	FOODEEG_Images\0263.jpg	YN	Left	Yes	1.24379500001669	0	252994	234
495.16796875	1	decision	trialStart	1	42	42	foodImage.46	FOODEEG_Images\0479.jpg	YN	Left	Yes	0.795657499693334	0	253527	251
496.22265625	2	decision	foodImageDisplay	1	42	42	foodImage.46	FOODEEG_Images\0479.jpg	YN	Left	Yes	0.795657499693334	0	254067	252
498.28515625	0.795657499693334	decision	choicePhaseStart	1	42	42	foodImage.46	FOODEEG_Images\0479.jpg	YN	Left	Yes	0.795657499693334	0	255123	253
499.0703125	0	decision	response	1	42	42	foodImage.46	FOODEEG_Images\0479.jpg	YN	Left	Yes	0.795657499693334	0	255525	234
500.11328125	1	taste	trialStart	1	43	43	foodImage.41	FOODEEG_Images\0409.jpg	NY	Right	Yes	0.849888099823147	0	256059	251
501.162109375	2	taste	foodImageDisplay	1	43	43	foodImage.41	FOODEEG_Images\0409.jpg	NY	Right	Yes	0.849888099823147	0	256596	252
503.22265625	0.849888099823147	taste	choicePhaseStart	1	43	43	foodImage.41	FOODEEG_Images\0409.jpg	NY	Right	Yes	0.849888099823147	0	257651	253
504.0625	0	taste	response	1	43	43	foodImage.41	FOODEEG_Images\0409.jpg	NY	Right	Yes	0.849888099823147	0	258081	235
505.10546875	1	health	trialStart	1	44	44	foodImage.78	FOODEEG_Images\0787.jpg	NY	Right	Yes	0.751683999784291	0	258615	251
506.150390625	2	health	foodImageDisplay	1	44	44	foodImage.78	FOODEEG_Images\0787.jpg	NY	Right	Yes	0.751683999784291	0	259150	252
508.21484375	0.751683999784291	health	choicePhaseStart	1	44	44	foodImage.78	FOODEEG_Images\0787.jpg	NY	Right	Yes	0.751683999784291	0	260207	253
508.958984375	0	health	response	1	44	44	foodImage.78	FOODEEG_Images\0787.jpg	NY	Right	Yes	0.751683999784291	0	260588	235
510.001953125	1	decision	trialStart	1	45	45	foodImage.19	FOODEEG_Images\0225.jpg	NY	Left	No	0.923585600219667	0	261122	251
511.044921875	2	decision	foodImageDisplay	1	45	45	foodImage.19	FOODEEG_Images\0225.jpg	NY	Left	No	0.923585600219667	0	261656	252
513.107421875	0.923585600219667	decision	choicePhaseStart	1	45	45	foodImage.19	FOODEEG_Images\0225.jpg	NY	Left	No	0.923585600219667	0	262712	253
514.0234375	0	decision	response	1	45	45	foodImage.19	FOODEEG_Images\0225.jpg	NY	Left	No	0.923585600219667	0	263181	234
515.064453125	1	health	trialStart	1	46	46	foodImage.81	FOODEEG_Images\0797.jpg	NY	Right	Yes	0.491459300275892	0	263714	251
516.123046875	2	health	foodImageDisplay	1	46	46	foodImage.81	FOODEEG_Images\0797.jpg	NY	Right	Yes	0.491459300275892	0	264256	252
518.1875	0.491459300275892	health	choicePhaseStart	1	46	46	foodImage.81	FOODEEG_Images\0797.jpg	NY	Right	Yes	0.491459300275892	0	265313	253
518.669921875	0	health	response	1	46	46	foodImage.81	FOODEEG_Images\0797.jpg	NY	Right	Yes	0.491459300275892	0	265560	235
519.708984375	1	health	trialStart	1	47	47	foodImage.113	FOODEEG_Images\0921.jpg	YN	Right	No	1.26813490036875	0	266092	251
520.748046875	2	health	foodImageDisplay	1	47	47	foodImage.113	FOODEEG_Images\0921.jpg	YN	Right	No	1.26813490036875	0	266624	252
522.810546875	1.26813490036875	health	choicePhaseStart	1	47	47	foodImage.113	FOODEEG_Images\0921.jpg	YN	Right	No	1.26813490036875	0	267680	253
524.0703125	0	health	response	1	47	47	foodImage.113	FOODEEG_Images\0921.jpg	YN	Right	No	1.26813490036875	0	268325	235
525.111328125	1	taste	trialStart	1	48	48	foodImage.78	FOODEEG_Images\0787.jpg	NY	Left	No	2.24382830038667	0	268858	251
526.15625	2	taste	foodImageDisplay	1	48	48	foodImage.78	FOODEEG_Images\0787.jpg	NY	Left	No	2.24382830038667	0	269393	252
528.21875	2.24382830038667	taste	choicePhaseStart	1	48	48	foodImage.78	FOODEEG_Images\0787.jpg	NY	Left	No	2.24382830038667	0	270449	253
530.453125	0	taste	response	1	48	48	foodImage.78	FOODEEG_Images\0787.jpg	NY	Left	No	2.24382830038667	0	271593	234
531.494140625	1	taste	trialStart	1	49	49	foodImage.21	FOODEEG_Images\0234.jpg	YN	Left	Yes	1.08657259959728	0	272126	251
532.552734375	2	taste	foodImageDisplay	1	49	49	foodImage.21	FOODEEG_Images\0234.jpg	YN	Left	Yes	1.08657259959728	0	272668	252
534.615234375	1.08657259959728	taste	choicePhaseStart	1	49	49	foodImage.21	FOODEEG_Images\0234.jpg	YN	Left	Yes	1.08657259959728	0	273724	253
535.693359375	0	taste	response	1	49	49	foodImage.21	FOODEEG_Images\0234.jpg	YN	Left	Yes	1.08657259959728	0	274276	234
536.736328125	1	health	trialStart	1	50	50	foodImage.104	FOODEEG_Images\0912.jpg	NY	Left	No	0.880887900013477	0	274810	251
537.7734375	2	health	foodImageDisplay	1	50	50	foodImage.104	FOODEEG_Images\0912.jpg	NY	Left	No	0.880887900013477	0	275341	252
539.8359375	0.880887900013477	health	choicePhaseStart	1	50	50	foodImage.104	FOODEEG_Images\0912.jpg	NY	Left	No	0.880887900013477	0	276397	253
540.708984375	0	health	response	1	50	50	foodImage.104	FOODEEG_Images\0912.jpg	NY	Left	No	0.880887900013477	0	276844	234
541.751953125	1	decision	trialStart	1	51	51	foodImage.68	FOODEEG_Images\0685.jpg	YN	Left	Yes	1.13427310017869	0	277378	251
542.826171875	2	decision	foodImageDisplay	1	51	51	foodImage.68	FOODEEG_Images\0685.jpg	YN	Left	Yes	1.13427310017869	0	277928	252
544.888671875	1.13427310017869	decision	choicePhaseStart	1	51	51	foodImage.68	FOODEEG_Images\0685.jpg	YN	Left	Yes	1.13427310017869	0	278984	253
546.013671875	0	decision	response	1	51	51	foodImage.68	FOODEEG_Images\0685.jpg	YN	Left	Yes	1.13427310017869	0	279560	234
547.0625	1	decision	trialStart	1	52	52	foodImage.103	FOODEEG_Images\0911.jpg	NY	Left	No	1.12287670001388	0	280097	251
548.099609375	2	decision	foodImageDisplay	1	52	52	foodImage.103	FOODEEG_Images\0911.jpg	NY	Left	No	1.12287670001388	0	280628	252
550.162109375	1.12287670001388	decision	choicePhaseStart	1	52	52	foodImage.103	FOODEEG_Images\0911.jpg	NY	Left	No	1.12287670001388	0	281684	253
551.27734375	0	decision	response	1	52	52	foodImage.103	FOODEEG_Images\0911.jpg	NY	Left	No	1.12287670001388	0	282255	234
552.318359375	1	health	trialStart	1	53	53	foodImage.102	FOODEEG_Images\0910.jpg	NY	Left	No	0.561232800129801	0	282788	251
553.35546875	2	health	foodImageDisplay	1	53	53	foodImage.102	FOODEEG_Images\0910.jpg	NY	Left	No	0.561232800129801	0	283319	252
555.419921875	0.561232800129801	health	choicePhaseStart	1	53	53	foodImage.102	FOODEEG_Images\0910.jpg	NY	Left	No	0.561232800129801	0	284376	253
555.97265625	0	health	response	1	53	53	foodImage.102	FOODEEG_Images\0910.jpg	NY	Left	No	0.561232800129801	0	284659	234
557.015625	1	health	trialStart	1	54	54	foodImage.109	FOODEEG_Images\0917.jpg	YN	Right	No	1.36067359987646	0	285193	251
558.0546875	2	health	foodImageDisplay	1	54	54	foodImage.109	FOODEEG_Images\0917.jpg	YN	Right	No	1.36067359987646	0	285725	252
560.115234375	1.36067359987646	health	choicePhaseStart	1	54	54	foodImage.109	FOODEEG_Images\0917.jpg	YN	Right	No	1.36067359987646	0	286780	253
561.46875	0	health	response	1	54	54	foodImage.109	FOODEEG_Images\0917.jpg	YN	Right	No	1.36067359987646	0	287473	235
562.509765625	1	decision	trialStart	1	55	55	foodImage.64	FOODEEG_Images\0647.jpg	YN	Left	Yes	0.721087000332773	0	288006	251
563.564453125	2	decision	foodImageDisplay	1	55	55	foodImage.64	FOODEEG_Images\0647.jpg	YN	Left	Yes	0.721087000332773	0	288546	252
565.62890625	0.721087000332773	decision	choicePhaseStart	1	55	55	foodImage.64	FOODEEG_Images\0647.jpg	YN	Left	Yes	0.721087000332773	0	289603	253
566.33984375	0	decision	response	1	55	55	foodImage.64	FOODEEG_Images\0647.jpg	YN	Left	Yes	0.721087000332773	0	289967	234
567.3828125	1	taste	trialStart	1	56	56	foodImage.30	FOODEEG_Images\0282.jpg	YN	Left	Yes	1.67042260011658	0	290501	251
568.423828125	2	taste	foodImageDisplay	1	56	56	foodImage.30	FOODEEG_Images\0282.jpg	YN	Left	Yes	1.67042260011658	0	291034	252
570.486328125	1.67042260011658	taste	choicePhaseStart	1	56	56	foodImage.30	FOODEEG_Images\0282.jpg	YN	Left	Yes	1.67042260011658	0	292090	253
572.1484375	0	taste	response	1	56	56	foodImage.30	FOODEEG_Images\0282.jpg	YN	Left	Yes	1.67042260011658	0	292941	234
573.19140625	1	health	trialStart	1	57	57	foodImage.24	FOODEEG_Images\0250.jpg	NY	Right	Yes	0.645362600218505	0	293475	251
574.232421875	2	health	foodImageDisplay	1	57	57	foodImage.24	FOODEEG_Images\0250.jpg	NY	Right	Yes	0.645362600218505	0	294008	252
576.294921875	0.645362600218505	health	choicePhaseStart	1	57	57	foodImage.24	FOODEEG_Images\0250.jpg	NY	Right	Yes	0.645362600218505	0	295064	253
576.931640625	0	health	response	1	57	57	foodImage.24	FOODEEG_Images\0250.jpg	NY	Right	Yes	0.645362600218505	0	295390	235
577.974609375	1	health	trialStart	1	58	58	foodImage.101	FOODEEG_Images\0909.jpg	YN	Left	Yes	1.43332710023969	0	295924	251
579.01171875	2	health	foodImageDisplay	1	58	58	foodImage.101	FOODEEG_Images\0909.jpg	YN	Left	Yes	1.43332710023969	0	296455	252
581.07421875	1.43332710023969	health	choicePhaseStart	1	58	58	foodImage.101	FOODEEG_Images\0909.jpg	YN	Left	Yes	1.43332710023969	0	297511	253
582.5	0	health	response	1	58	58	foodImage.101	FOODEEG_Images\0909.jpg	YN	Left	Yes	1.43332710023969	0	298241	234
583.54296875	1	health	trialStart	1	59	59	foodImage.18	FOODEEG_Images\0202.jpg	YN	Left	Yes	1.57863479992375	0	298775	251
584.59765625	2	health	foodImageDisplay	1	59	59	foodImage.18	FOODEEG_Images\0202.jpg	YN	Left	Yes	1.57863479992375	0	299315	252
586.658203125	1.57863479992375	health	choicePhaseStart	1	59	59	foodImage.18	FOODEEG_Images\0202.jpg	YN	Left	Yes	1.57863479992375	0	300370	253
588.2265625	0	health	response	1	59	59	foodImage.18	FOODEEG_Images\0202.jpg	YN	Left	Yes	1.57863479992375	0	301173	234
589.26953125	1	taste	trialStart	1	60	60	foodImage.58	FOODEEG_Images\0605.jpg	NY	Right	Yes	1.35558820003644	0	301707	251
590.330078125	2	taste	foodImageDisplay	1	60	60	foodImage.58	FOODEEG_Images\0605.jpg	NY	Right	Yes	1.35558820003644	0	302250	252
592.392578125	1.35558820003644	taste	choicePhaseStart	1	60	60	foodImage.58	FOODEEG_Images\0605.jpg	NY	Right	Yes	1.35558820003644	0	303306	253
593.740234375	0	taste	response	1	60	60	foodImage.58	FOODEEG_Images\0605.jpg	NY	Right	Yes	1.35558820003644	0	303996	235
595.779296875	14.322265625	n/a	blockEnd	n/a	n/a	n/a	n/a	n/a	n/a	n/a	n/a	n/a	n/a	305040	254
610.1015625	2	n/a	blockStart	2	n/a	n/a	n/a	n/a	n/a	n/a	n/a	n/a	n/a	312373	250
612.138671875	1	health	trialStart	2	61	1	foodImage.119	FOODEEG_Images\0927.jpg	YN	Right	No	2.34638760006055	0	313416	251
613.177734375	2	health	foodImageDisplay	2	61	1	foodImage.119	FOODEEG_Images\0927.jpg	YN	Right	No	2.34638760006055	0	313948	252
615.240234375	2.34638760006055	health	choicePhaseStart	2	61	1	foodImage.119	FOODEEG_Images\0927.jpg	YN	Right	No	2.34638760006055	0	315004	253
617.578125	0	health	response	2	61	1	foodImage.119	FOODEEG_Images\0927.jpg	YN	Right	No	2.34638760006055	0	316201	235
618.62109375	1	health	trialStart	2	62	2	foodImage.21	FOODEEG_Images\0234.jpg	NY	Right	Yes	1.30601939978078	0	316735	251
619.677734375	2	health	foodImageDisplay	2	62	2	foodImage.21	FOODEEG_Images\0234.jpg	NY	Right	Yes	1.30601939978078	0	317276	252
621.73828125	1.30601939978078	health	choicePhaseStart	2	62	2	foodImage.21	FOODEEG_Images\0234.jpg	NY	Right	Yes	1.30601939978078	0	318331	253
623.033203125	0	health	response	2	62	2	foodImage.21	FOODEEG_Images\0234.jpg	NY	Right	Yes	1.30601939978078	0	318994	235
624.078125	1	health	trialStart	2	63	3	foodImage.73	FOODEEG_Images\0717.jpg	NY	Left	No	1.91562120011076	0	319529	251
625.13671875	2	health	foodImageDisplay	2	63	3	foodImage.73	FOODEEG_Images\0717.jpg	NY	Left	No	1.91562120011076	0	320071	252
627.19921875	1.91562120011076	health	choicePhaseStart	2	63	3	foodImage.73	FOODEEG_Images\0717.jpg	NY	Left	No	1.91562120011076	0	321127	253
629.10546875	0	health	response	2	63	3	foodImage.73	FOODEEG_Images\0717.jpg	NY	Left	No	1.91562120011076	0	322103	234
630.154296875	1	taste	trialStart	2	64	4	foodImage.2	FOODEEG_Images\0028.jpg	NY	Right	Yes	0.863666200079024	0	322640	251
631.197265625	2	taste	foodImageDisplay	2	64	4	foodImage.2	FOODEEG_Images\0028.jpg	NY	Right	Yes	0.863666200079024	0	323174	252
633.259765625	0.863666200079024	taste	choicePhaseStart	2	64	4	foodImage.2	FOODEEG_Images\0028.jpg	NY	Right	Yes	0.863666200079024	0	324230	253
634.11328125	0	taste	response	2	64	4	foodImage.2	FOODEEG_Images\0028.jpg	NY	Right	Yes	0.863666200079024	0	324667	235
635.15625	1	decision	trialStart	2	65	5	foodImage.43	FOODEEG_Images\0445.jpg	NY	Right	Yes	0.963163699954748	0	325201	251
636.2265625	2	decision	foodImageDisplay	2	65	5	foodImage.43	FOODEEG_Images\0445.jpg	NY	Right	Yes	0.963163699954748	0	325749	252
638.2890625	0.963163699954748	decision	choicePhaseStart	2	65	5	foodImage.43	FOODEEG_Images\0445.jpg	NY	Right	Yes	0.963163699954748	0	326805	253
639.2421875	0	decision	response	2	65	5	foodImage.43	FOODEEG_Images\0445.jpg	NY	Right	Yes	0.963163699954748	0	327293	235
640.28515625	1	taste	trialStart	2	66	6	foodImage.83	FOODEEG_Images\0827.jpg	YN	Left	Yes	0.942087300121784	0	327827	251
641.341796875	2	taste	foodImageDisplay	2	66	6	foodImage.83	FOODEEG_Images\0827.jpg	YN	Left	Yes	0.942087300121784	0	328368	252
643.404296875	0.942087300121784	taste	choicePhaseStart	2	66	6	foodImage.83	FOODEEG_Images\0827.jpg	YN	Left	Yes	0.942087300121784	0	329424	253
644.337890625	0	taste	response	2	66	6	foodImage.83	FOODEEG_Images\0827.jpg	YN	Left	Yes	0.942087300121784	0	329902	234
645.380859375	1	taste	trialStart	2	67	7	foodImage.76	FOODEEG_Images\0766.jpg	YN	Right	No	0.634199199732393	0	330436	251
646.42578125	2	taste	foodImageDisplay	2	67	7	foodImage.76	FOODEEG_Images\0766.jpg	YN	Right	No	0.634199199732393	0	330971	252
648.48828125	0.634199199732393	taste	choicePhaseStart	2	67	7	foodImage.76	FOODEEG_Images\0766.jpg	YN	Right	No	0.634199199732393	0	332027	253
649.11328125	0	taste	response	2	67	7	foodImage.76	FOODEEG_Images\0766.jpg	YN	Right	No	0.634199199732393	0	332347	235
650.15625	1	taste	trialStart	2	68	8	foodImage.84	FOODEEG_Images\0830.jpg	NY	Left	No	2.33365309983492	0	332881	251
651.2109375	2	taste	foodImageDisplay	2	68	8	foodImage.84	FOODEEG_Images\0830.jpg	NY	Left	No	2.33365309983492	0	333421	252
653.2734375	2.33365309983492	taste	choicePhaseStart	2	68	8	foodImage.84	FOODEEG_Images\0830.jpg	NY	Left	No	2.33365309983492	0	334477	253
655.6015625	0	taste	response	2	68	8	foodImage.84	FOODEEG_Images\0830.jpg	NY	Left	No	2.33365309983492	0	335669	234
656.64453125	1	decision	trialStart	2	69	9	foodImage.18	FOODEEG_Images\0202.jpg	NY	Right	Yes	1.448092199862	0	336203	251
657.69921875	2	decision	foodImageDisplay	2	69	9	foodImage.18	FOODEEG_Images\0202.jpg	NY	Right	Yes	1.448092199862	0	336743	252
659.76171875	1.448092199862	decision	choicePhaseStart	2	69	9	foodImage.18	FOODEEG_Images\0202.jpg	NY	Right	Yes	1.448092199862	0	337799	253
661.201171875	0	decision	response	2	69	9	foodImage.18	FOODEEG_Images\0202.jpg	NY	Right	Yes	1.448092199862	0	338536	235
662.24609375	1	decision	trialStart	2	70	10	foodImage.49	FOODEEG_Images\0515.jpg	NY	Right	Yes	1.40881679998711	0	339071	251
663.291015625	2	decision	foodImageDisplay	2	70	10	foodImage.49	FOODEEG_Images\0515.jpg	NY	Right	Yes	1.40881679998711	0	339606	252
665.353515625	1.40881679998711	decision	choicePhaseStart	2	70	10	foodImage.49	FOODEEG_Images\0515.jpg	NY	Right	Yes	1.40881679998711	0	340662	253
666.751953125	0	decision	response	2	70	10	foodImage.49	FOODEEG_Images\0515.jpg	NY	Right	Yes	1.40881679998711	0	341378	235
667.794921875	1	taste	trialStart	2	71	11	foodImage.109	FOODEEG_Images\0917.jpg	YN	Right	No	0.79398460034281	0	341912	251
668.833984375	2	taste	foodImageDisplay	2	71	11	foodImage.109	FOODEEG_Images\0917.jpg	YN	Right	No	0.79398460034281	0	342444	252
670.896484375	0.79398460034281	taste	choicePhaseStart	2	71	11	foodImage.109	FOODEEG_Images\0917.jpg	YN	Right	No	0.79398460034281	0	343500	253
671.6796875	0	taste	response	2	71	11	foodImage.109	FOODEEG_Images\0917.jpg	YN	Right	No	0.79398460034281	0	343901	235
672.728515625	1	taste	trialStart	2	72	12	foodImage.9	FOODEEG_Images\0138.jpg	YN	Right	No	1.9012000001967	0	344438	251
673.787109375	2	taste	foodImageDisplay	2	72	12	foodImage.9	FOODEEG_Images\0138.jpg	YN	Right	No	1.9012000001967	0	344980	252
675.849609375	1.9012000001967	taste	choicePhaseStart	2	72	12	foodImage.9	FOODEEG_Images\0138.jpg	YN	Right	No	1.9012000001967	0	346036	253
677.744140625	0	taste	response	2	72	12	foodImage.9	FOODEEG_Images\0138.jpg	YN	Right	No	1.9012000001967	0	347006	235
678.787109375	1	decision	trialStart	2	73	13	foodImage.22	FOODEEG_Images\0236.jpg	YN	Left	Yes	0.657648300286382	0	347540	251
679.830078125	2	decision	foodImageDisplay	2	73	13	foodImage.22	FOODEEG_Images\0236.jpg	YN	Left	Yes	0.657648300286382	0	348074	252
681.89453125	0.657648300286382	decision	choicePhaseStart	2	73	13	foodImage.22	FOODEEG_Images\0236.jpg	YN	Left	Yes	0.657648300286382	0	349131	253
682.54296875	0	decision	response	2	73	13	foodImage.22	FOODEEG_Images\0236.jpg	YN	Left	Yes	0.657648300286382	0	349463	234
683.5859375	1	decision	trialStart	2	74	14	foodImage.73	FOODEEG_Images\0717.jpg	YN	Left	Yes	1.78121959976852	0	349997	251
684.64453125	2	decision	foodImageDisplay	2	74	14	foodImage.73	FOODEEG_Images\0717.jpg	YN	Left	Yes	1.78121959976852	0	350539	252
686.70703125	1.78121959976852	decision	choicePhaseStart	2	74	14	foodImage.73	FOODEEG_Images\0717.jpg	YN	Left	Yes	1.78121959976852	0	351595	253
688.478515625	0	decision	response	2	74	14	foodImage.73	FOODEEG_Images\0717.jpg	YN	Left	Yes	1.78121959976852	0	352502	234
689.525390625	1	taste	trialStart	2	75	15	foodImage.3	FOODEEG_Images\0046.jpg	YN	Right	No	0.92955100024119	0	353038	251
690.568359375	2	taste	foodImageDisplay	2	75	15	foodImage.3	FOODEEG_Images\0046.jpg	YN	Right	No	0.92955100024119	0	353572	252
692.630859375	0.92955100024119	taste	choicePhaseStart	2	75	15	foodImage.3	FOODEEG_Images\0046.jpg	YN	Right	No	0.92955100024119	0	354628	253
693.55078125	0	taste	response	2	75	15	foodImage.3	FOODEEG_Images\0046.jpg	YN	Right	No	0.92955100024119	0	355099	235
694.59375	1	decision	trialStart	2	76	16	foodImage.9	FOODEEG_Images\0138.jpg	YN	Right	No	1.54075500043109	0	355633	251
695.654296875	2	decision	foodImageDisplay	2	76	16	foodImage.9	FOODEEG_Images\0138.jpg	YN	Right	No	1.54075500043109	0	356176	252
697.716796875	1.54075500043109	decision	choicePhaseStart	2	76	16	foodImage.9	FOODEEG_Images\0138.jpg	YN	Right	No	1.54075500043109	0	357232	253
699.248046875	0	decision	response	2	76	16	foodImage.9	FOODEEG_Images\0138.jpg	YN	Right	No	1.54075500043109	0	358016	235
700.2890625	1	health	trialStart	2	77	17	foodImage.57	FOODEEG_Images\0587.jpg	NY	Right	Yes	1.14924630010501	0	358549	251
701.33203125	2	health	foodImageDisplay	2	77	17	foodImage.57	FOODEEG_Images\0587.jpg	NY	Right	Yes	1.14924630010501	0	359083	252
703.39453125	1.14924630010501	health	choicePhaseStart	2	77	17	foodImage.57	FOODEEG_Images\0587.jpg	NY	Right	Yes	1.14924630010501	0	360139	253
704.53515625	0	health	response	2	77	17	foodImage.57	FOODEEG_Images\0587.jpg	NY	Right	Yes	1.14924630010501	0	360723	235
705.578125	1	decision	trialStart	2	78	18	foodImage.105	FOODEEG_Images\0913.jpg	YN	Right	No	0.976756900083274	0	361257	251
706.615234375	2	decision	foodImageDisplay	2	78	18	foodImage.105	FOODEEG_Images\0913.jpg	YN	Right	No	0.976756900083274	0	361788	252
708.677734375	0.976756900083274	decision	choicePhaseStart	2	78	18	foodImage.105	FOODEEG_Images\0913.jpg	YN	Right	No	0.976756900083274	0	362844	253
709.646484375	0	decision	response	2	78	18	foodImage.105	FOODEEG_Images\0913.jpg	YN	Right	No	0.976756900083274	0	363340	235
710.69140625	1	decision	trialStart	2	79	19	foodImage.87	FOODEEG_Images\0873.jpg	NY	Right	Yes	0.93863009987399	0	363875	251
711.75	2	decision	foodImageDisplay	2	79	19	foodImage.87	FOODEEG_Images\0873.jpg	NY	Right	Yes	0.93863009987399	0	364417	252
713.8125	0.93863009987399	decision	choicePhaseStart	2	79	19	foodImage.87	FOODEEG_Images\0873.jpg	NY	Right	Yes	0.93863009987399	0	365473	253
714.7421875	0	decision	response	2	79	19	foodImage.87	FOODEEG_Images\0873.jpg	NY	Right	Yes	0.93863009987399	0	365949	235
715.787109375	1	taste	trialStart	2	80	20	foodImage.79	FOODEEG_Images\0794.jpg	YN	Left	Yes	0.914762699976563	0	366484	251
716.830078125	2	taste	foodImageDisplay	2	80	20	foodImage.79	FOODEEG_Images\0794.jpg	YN	Left	Yes	0.914762699976563	0	367018	252
718.892578125	0.914762699976563	taste	choicePhaseStart	2	80	20	foodImage.79	FOODEEG_Images\0794.jpg	YN	Left	Yes	0.914762699976563	0	368074	253
719.798828125	0	taste	response	2	80	20	foodImage.79	FOODEEG_Images\0794.jpg	YN	Left	Yes	0.914762699976563	0	368538	234
720.841796875	1	health	trialStart	2	81	21	foodImage.114	FOODEEG_Images\0922.jpg	YN	Right	No	0.625384899787605	0	369072	251
721.87890625	2	health	foodImageDisplay	2	81	21	foodImage.114	FOODEEG_Images\0922.jpg	YN	Right	No	0.625384899787605	0	369603	252
723.94140625	0.625384899787605	health	choicePhaseStart	2	81	21	foodImage.114	FOODEEG_Images\0922.jpg	YN	Right	No	0.625384899787605	0	370659	253
724.55859375	0	health	response	2	81	21	foodImage.114	FOODEEG_Images\0922.jpg	YN	Right	No	0.625384899787605	0	370975	235
725.6015625	1	taste	trialStart	2	82	22	foodImage.63	FOODEEG_Images\0645.jpg	YN	Left	Yes	1.10261489963159	0	371509	251
726.650390625	2	taste	foodImageDisplay	2	82	22	foodImage.63	FOODEEG_Images\0645.jpg	YN	Left	Yes	1.10261489963159	0	372046	252
728.712890625	1.10261489963159	taste	choicePhaseStart	2	82	22	foodImage.63	FOODEEG_Images\0645.jpg	YN	Left	Yes	1.10261489963159	0	373102	253
729.806640625	0	taste	response	2	82	22	foodImage.63	FOODEEG_Images\0645.jpg	YN	Left	Yes	1.10261489963159	0	373662	234
730.8515625	1	taste	trialStart	2	83	23	foodImage.93	FOODEEG_Images\0901.jpg	NY	Left	No	1.69186219992116	0	374197	251
731.892578125	2	taste	foodImageDisplay	2	83	23	foodImage.93	FOODEEG_Images\0901.jpg	NY	Left	No	1.69186219992116	0	374730	252
733.955078125	1.69186219992116	taste	choicePhaseStart	2	83	23	foodImage.93	FOODEEG_Images\0901.jpg	NY	Left	No	1.69186219992116	0	375786	253
735.638671875	0	taste	response	2	83	23	foodImage.93	FOODEEG_Images\0901.jpg	NY	Left	No	1.69186219992116	0	376648	234
736.685546875	1	health	trialStart	2	84	24	foodImage.105	FOODEEG_Images\0913.jpg	NY	Right	Yes	3.65998560003936	0	377184	251
737.724609375	2	health	foodImageDisplay	2	84	24	foodImage.105	FOODEEG_Images\0913.jpg	NY	Right	Yes	3.65998560003936	0	377716	252
739.787109375	3.65998560003936	health	choicePhaseStart	2	84	24	foodImage.105	FOODEEG_Images\0913.jpg	NY	Right	Yes	3.65998560003936	0	378772	253
743.4375	0	health	response	2	84	24	foodImage.105	FOODEEG_Images\0913.jpg	NY	Right	Yes	3.65998560003936	0	380641	235
744.48046875	1	decision	trialStart	2	85	25	foodImage.112	FOODEEG_Images\0920.jpg	NY	Left	No	0.983124199789017	0	381175	251
745.51953125	2	decision	foodImageDisplay	2	85	25	foodImage.112	FOODEEG_Images\0920.jpg	NY	Left	No	0.983124199789017	0	381707	252
747.58203125	0.983124199789017	decision	choicePhaseStart	2	85	25	foodImage.112	FOODEEG_Images\0920.jpg	NY	Left	No	0.983124199789017	0	382763	253
748.556640625	0	decision	response	2	85	25	foodImage.112	FOODEEG_Images\0920.jpg	NY	Left	No	0.983124199789017	0	383262	234
749.59765625	1	taste	trialStart	2	86	26	foodImage.110	FOODEEG_Images\0918.jpg	YN	Right	No	0.955458600074053	0	383795	251
750.63671875	2	taste	foodImageDisplay	2	86	26	foodImage.110	FOODEEG_Images\0918.jpg	YN	Right	No	0.955458600074053	0	384327	252
752.69921875	0.955458600074053	taste	choicePhaseStart	2	86	26	foodImage.110	FOODEEG_Images\0918.jpg	YN	Right	No	0.955458600074053	0	385383	253
753.64453125	0	taste	response	2	86	26	foodImage.110	FOODEEG_Images\0918.jpg	YN	Right	No	0.955458600074053	0	385867	235
754.6875	1	decision	trialStart	2	87	27	foodImage.75	FOODEEG_Images\0763.jpg	YN	Left	Yes	0.545180299784988	0	386401	251
755.734375	2	decision	foodImageDisplay	2	87	27	foodImage.75	FOODEEG_Images\0763.jpg	YN	Left	Yes	0.545180299784988	0	386937	252
757.796875	0.545180299784988	decision	choicePhaseStart	2	87	27	foodImage.75	FOODEEG_Images\0763.jpg	YN	Left	Yes	0.545180299784988	0	387993	253
758.33203125	0	decision	response	2	87	27	foodImage.75	FOODEEG_Images\0763.jpg	YN	Left	Yes	0.545180299784988	0	388267	234
759.373046875	1	health	trialStart	2	88	28	foodImage.61	FOODEEG_Images\0640.jpg	YN	Left	Yes	0.709101599641144	0	388800	251
760.41796875	2	health	foodImageDisplay	2	88	28	foodImage.61	FOODEEG_Images\0640.jpg	YN	Left	Yes	0.709101599641144	0	389335	252
762.48046875	0.709101599641144	health	choicePhaseStart	2	88	28	foodImage.61	FOODEEG_Images\0640.jpg	YN	Left	Yes	0.709101599641144	0	390391	253
763.181640625	0	health	response	2	88	28	foodImage.61	FOODEEG_Images\0640.jpg	YN	Left	Yes	0.709101599641144	0	390750	234
764.22265625	1	health	trialStart	2	89	29	foodImage.87	FOODEEG_Images\0873.jpg	NY	Right	Yes	0.766567800194025	0	391283	251
765.28125	2	health	foodImageDisplay	2	89	29	foodImage.87	FOODEEG_Images\0873.jpg	NY	Right	Yes	0.766567800194025	0	391825	252
767.341796875	0.766567800194025	health	choicePhaseStart	2	89	29	foodImage.87	FOODEEG_Images\0873.jpg	NY	Right	Yes	0.766567800194025	0	392880	253
768.1015625	0	health	response	2	89	29	foodImage.87	FOODEEG_Images\0873.jpg	NY	Right	Yes	0.766567800194025	0	393269	235
769.14453125	1	health	trialStart	2	90	30	foodImage.76	FOODEEG_Images\0766.jpg	YN	Left	Yes	1.24099890002981	0	393803	251
770.189453125	2	health	foodImageDisplay	2	90	30	foodImage.76	FOODEEG_Images\0766.jpg	YN	Left	Yes	1.24099890002981	0	394338	252
772.251953125	1.24099890002981	health	choicePhaseStart	2	90	30	foodImage.76	FOODEEG_Images\0766.jpg	YN	Left	Yes	1.24099890002981	0	395394	253
773.484375	0	health	response	2	90	30	foodImage.76	FOODEEG_Images\0766.jpg	YN	Left	Yes	1.24099890002981	0	396025	234
774.52734375	1	taste	trialStart	2	91	31	foodImage.14	FOODEEG_Images\0188.jpg	YN	Left	Yes	1.82139799976721	0	396559	251
775.5859375	2	taste	foodImageDisplay	2	91	31	foodImage.14	FOODEEG_Images\0188.jpg	YN	Left	Yes	1.82139799976721	0	397101	252
777.6484375	1.82139799976721	taste	choicePhaseStart	2	91	31	foodImage.14	FOODEEG_Images\0188.jpg	YN	Left	Yes	1.82139799976721	0	398157	253
779.4609375	0	taste	response	2	91	31	foodImage.14	FOODEEG_Images\0188.jpg	YN	Left	Yes	1.82139799976721	0	399085	234
780.501953125	1	health	trialStart	2	92	32	foodImage.95	FOODEEG_Images\0903.jpg	NY	Left	No	1.81874469993636	0	399618	251
781.5546875	2	health	foodImageDisplay	2	92	32	foodImage.95	FOODEEG_Images\0903.jpg	NY	Left	No	1.81874469993636	0	400157	252
783.615234375	1.81874469993636	health	choicePhaseStart	2	92	32	foodImage.95	FOODEEG_Images\0903.jpg	NY	Left	No	1.81874469993636	0	401212	253
785.427734375	0	health	response	2	92	32	foodImage.95	FOODEEG_Images\0903.jpg	NY	Left	No	1.81874469993636	0	402140	234
786.466796875	1	taste	trialStart	2	93	33	foodImage.90	FOODEEG_Images\0890.jpg	YN	Left	Yes	1.19554510014132	0	402672	251
787.5234375	2	taste	foodImageDisplay	2	93	33	foodImage.90	FOODEEG_Images\0890.jpg	YN	Left	Yes	1.19554510014132	0	403213	252
789.5859375	1.19554510014132	taste	choicePhaseStart	2	93	33	foodImage.90	FOODEEG_Images\0890.jpg	YN	Left	Yes	1.19554510014132	0	404269	253
790.771484375	0	taste	response	2	93	33	foodImage.90	FOODEEG_Images\0890.jpg	YN	Left	Yes	1.19554510014132	0	404876	234
791.814453125	1	health	trialStart	2	94	34	foodImage.33	FOODEEG_Images\0329.jpg	NY	Right	Yes	0.564063299912959	0	405410	251
792.857421875	2	health	foodImageDisplay	2	94	34	foodImage.33	FOODEEG_Images\0329.jpg	NY	Right	Yes	0.564063299912959	0	405944	252
794.919921875	0.564063299912959	health	choicePhaseStart	2	94	34	foodImage.33	FOODEEG_Images\0329.jpg	NY	Right	Yes	0.564063299912959	0	407000	253
795.474609375	0	health	response	2	94	34	foodImage.33	FOODEEG_Images\0329.jpg	NY	Right	Yes	0.564063299912959	0	407284	235
796.517578125	1	taste	trialStart	2	95	35	foodImage.119	FOODEEG_Images\0927.jpg	YN	Right	No	2.04155900003389	0	407818	251
797.556640625	2	taste	foodImageDisplay	2	95	35	foodImage.119	FOODEEG_Images\0927.jpg	YN	Right	No	2.04155900003389	0	408350	252
799.619140625	2.04155900003389	taste	choicePhaseStart	2	95	35	foodImage.119	FOODEEG_Images\0927.jpg	YN	Right	No	2.04155900003389	0	409406	253
801.650390625	0	taste	response	2	95	35	foodImage.119	FOODEEG_Images\0927.jpg	YN	Right	No	2.04155900003389	0	410446	235
802.69140625	1	health	trialStart	2	96	36	foodImage.107	FOODEEG_Images\0915.jpg	YN	Right	No	2.0983706000261	0	410979	251
803.728515625	2	health	foodImageDisplay	2	96	36	foodImage.107	FOODEEG_Images\0915.jpg	YN	Right	No	2.0983706000261	0	411510	252
805.791015625	2.0983706000261	health	choicePhaseStart	2	96	36	foodImage.107	FOODEEG_Images\0915.jpg	YN	Right	No	2.0983706000261	0	412566	253
807.8828125	0	health	response	2	96	36	foodImage.107	FOODEEG_Images\0915.jpg	YN	Right	No	2.0983706000261	0	413637	235
808.923828125	1	health	trialStart	2	97	37	foodImage.38	FOODEEG_Images\0365.jpg	YN	Left	Yes	0.714458699803799	0	414170	251
809.9609375	2	health	foodImageDisplay	2	97	37	foodImage.38	FOODEEG_Images\0365.jpg	YN	Left	Yes	0.714458699803799	0	414701	252
812.0234375	0.714458699803799	health	choicePhaseStart	2	97	37	foodImage.38	FOODEEG_Images\0365.jpg	YN	Left	Yes	0.714458699803799	0	415757	253
812.73046875	0	health	response	2	97	37	foodImage.38	FOODEEG_Images\0365.jpg	YN	Left	Yes	0.714458699803799	0	416119	234
813.771484375	1	taste	trialStart	2	98	38	foodImage.5	FOODEEG_Images\0107.jpg	NY	Right	Yes	0.809779599774629	0	416652	251
814.833984375	2	taste	foodImageDisplay	2	98	38	foodImage.5	FOODEEG_Images\0107.jpg	NY	Right	Yes	0.809779599774629	0	417196	252
816.89453125	0.809779599774629	taste	choicePhaseStart	2	98	38	foodImage.5	FOODEEG_Images\0107.jpg	NY	Right	Yes	0.809779599774629	0	418251	253
817.69921875	0	taste	response	2	98	38	foodImage.5	FOODEEG_Images\0107.jpg	NY	Right	Yes	0.809779599774629	0	418663	235
818.73828125	1	health	trialStart	2	99	39	foodImage.49	FOODEEG_Images\0515.jpg	NY	Right	Yes	0.552191399969161	0	419195	251
819.779296875	2	health	foodImageDisplay	2	99	39	foodImage.49	FOODEEG_Images\0515.jpg	NY	Right	Yes	0.552191399969161	0	419728	252
821.841796875	0.552191399969161	health	choicePhaseStart	2	99	39	foodImage.49	FOODEEG_Images\0515.jpg	NY	Right	Yes	0.552191399969161	0	420784	253
822.38671875	0	health	response	2	99	39	foodImage.49	FOODEEG_Images\0515.jpg	NY	Right	Yes	0.552191399969161	0	421063	235
823.4296875	1	decision	trialStart	2	100	40	foodImage.10	FOODEEG_Images\0145.jpg	YN	Left	Yes	1.08373219985515	0	421597	251
824.48828125	2	decision	foodImageDisplay	2	100	40	foodImage.10	FOODEEG_Images\0145.jpg	YN	Left	Yes	1.08373219985515	0	422139	252
826.55078125	1.08373219985515	decision	choicePhaseStart	2	100	40	foodImage.10	FOODEEG_Images\0145.jpg	YN	Left	Yes	1.08373219985515	0	423195	253
827.626953125	0	decision	response	2	100	40	foodImage.10	FOODEEG_Images\0145.jpg	YN	Left	Yes	1.08373219985515	0	423746	234
828.67578125	1	health	trialStart	2	101	41	foodImage.47	FOODEEG_Images\0488.jpg	NY	Left	No	1.09729009959847	0	424283	251
829.716796875	2	health	foodImageDisplay	2	101	41	foodImage.47	FOODEEG_Images\0488.jpg	NY	Left	No	1.09729009959847	0	424816	252
831.77734375	1.09729009959847	health	choicePhaseStart	2	101	41	foodImage.47	FOODEEG_Images\0488.jpg	NY	Left	No	1.09729009959847	0	425871	253
832.865234375	0	health	response	2	101	41	foodImage.47	FOODEEG_Images\0488.jpg	NY	Left	No	1.09729009959847	0	426428	234
833.90625	1	decision	trialStart	2	102	42	foodImage.57	FOODEEG_Images\0587.jpg	NY	Right	Yes	2.68782519968227	0	426961	251
834.94921875	2	decision	foodImageDisplay	2	102	42	foodImage.57	FOODEEG_Images\0587.jpg	NY	Right	Yes	2.68782519968227	0	427495	252
837.01171875	2.68782519968227	decision	choicePhaseStart	2	102	42	foodImage.57	FOODEEG_Images\0587.jpg	NY	Right	Yes	2.68782519968227	0	428551	253
839.689453125	0	decision	response	2	102	42	foodImage.57	FOODEEG_Images\0587.jpg	NY	Right	Yes	2.68782519968227	0	429922	235
840.73828125	1	decision	trialStart	2	103	43	foodImage.66	FOODEEG_Images\0676.jpg	NY	Right	Yes	1.29144050041214	0	430459	251
841.77734375	2	decision	foodImageDisplay	2	103	43	foodImage.66	FOODEEG_Images\0676.jpg	NY	Right	Yes	1.29144050041214	0	430991	252
843.83984375	1.29144050041214	decision	choicePhaseStart	2	103	43	foodImage.66	FOODEEG_Images\0676.jpg	NY	Right	Yes	1.29144050041214	0	432047	253
845.12109375	0	decision	response	2	103	43	foodImage.66	FOODEEG_Images\0676.jpg	NY	Right	Yes	1.29144050041214	0	432703	235
846.1640625	1	health	trialStart	2	104	44	foodImage.117	FOODEEG_Images\0925.jpg	NY	Left	No	2.99098479980603	0	433237	251
847.205078125	2	health	foodImageDisplay	2	104	44	foodImage.117	FOODEEG_Images\0925.jpg	NY	Left	No	2.99098479980603	0	433770	252
849.267578125	2.99098479980603	health	choicePhaseStart	2	104	44	foodImage.117	FOODEEG_Images\0925.jpg	NY	Left	No	2.99098479980603	0	434826	253
852.25	0	health	response	2	104	44	foodImage.117	FOODEEG_Images\0925.jpg	NY	Left	No	2.99098479980603	0	436353	234
853.291015625	1	decision	trialStart	2	105	45	foodImage.31	FOODEEG_Images\0294.jpg	NY	Left	No	1.18701269989833	0	436886	251
854.33203125	2	decision	foodImageDisplay	2	105	45	foodImage.31	FOODEEG_Images\0294.jpg	NY	Left	No	1.18701269989833	0	437419	252
856.400390625	1.18701269989833	decision	choicePhaseStart	2	105	45	foodImage.31	FOODEEG_Images\0294.jpg	NY	Left	No	1.18701269989833	0	438478	253
857.576171875	0	decision	response	2	105	45	foodImage.31	FOODEEG_Images\0294.jpg	NY	Left	No	1.18701269989833	0	439080	234
858.62109375	1	health	trialStart	2	106	46	foodImage.16	FOODEEG_Images\0196.jpg	NY	Right	Yes	0.729948099702597	0	439615	251
859.681640625	2	health	foodImageDisplay	2	106	46	foodImage.16	FOODEEG_Images\0196.jpg	NY	Right	Yes	0.729948099702597	0	440158	252
861.744140625	0.729948099702597	health	choicePhaseStart	2	106	46	foodImage.16	FOODEEG_Images\0196.jpg	NY	Right	Yes	0.729948099702597	0	441214	253
862.46484375	0	health	response	2	106	46	foodImage.16	FOODEEG_Images\0196.jpg	NY	Right	Yes	0.729948099702597	0	441583	235
863.5078125	1	health	trialStart	2	107	47	foodImage.112	FOODEEG_Images\0920.jpg	NY	Left	No	0.63906370010227	0	442117	251
864.548828125	2	health	foodImageDisplay	2	107	47	foodImage.112	FOODEEG_Images\0920.jpg	NY	Left	No	0.63906370010227	0	442650	252
866.611328125	0.63906370010227	health	choicePhaseStart	2	107	47	foodImage.112	FOODEEG_Images\0920.jpg	NY	Left	No	0.63906370010227	0	443706	253
867.240234375	0	health	response	2	107	47	foodImage.112	FOODEEG_Images\0920.jpg	NY	Left	No	0.63906370010227	0	444028	234
868.283203125	1	decision	trialStart	2	108	48	foodImage.96	FOODEEG_Images\0904.jpg	YN	Right	No	0.978083200287074	0	444562	251
869.3203125	2	decision	foodImageDisplay	2	108	48	foodImage.96	FOODEEG_Images\0904.jpg	YN	Right	No	0.978083200287074	0	445093	252
871.3828125	0.978083200287074	decision	choicePhaseStart	2	108	48	foodImage.96	FOODEEG_Images\0904.jpg	YN	Right	No	0.978083200287074	0	446149	253
872.3515625	0	decision	response	2	108	48	foodImage.96	FOODEEG_Images\0904.jpg	YN	Right	No	0.978083200287074	0	446645	235
873.39453125	1	taste	trialStart	2	109	49	foodImage.17	FOODEEG_Images\0199.jpg	YN	Left	Yes	2.13039649976417	0	447179	251
874.4375	2	taste	foodImageDisplay	2	109	49	foodImage.17	FOODEEG_Images\0199.jpg	YN	Left	Yes	2.13039649976417	0	447713	252
876.501953125	2.13039649976417	taste	choicePhaseStart	2	109	49	foodImage.17	FOODEEG_Images\0199.jpg	YN	Left	Yes	2.13039649976417	0	448770	253
878.625	0	taste	response	2	109	49	foodImage.17	FOODEEG_Images\0199.jpg	YN	Left	Yes	2.13039649976417	0	449857	234
879.666015625	1	health	trialStart	2	110	50	foodImage.29	FOODEEG_Images\0278.jpg	NY	Right	Yes	1.18797000031918	0	450390	251
880.708984375	2	health	foodImageDisplay	2	110	50	foodImage.29	FOODEEG_Images\0278.jpg	NY	Right	Yes	1.18797000031918	0	450924	252
882.771484375	1.18797000031918	health	choicePhaseStart	2	110	50	foodImage.29	FOODEEG_Images\0278.jpg	NY	Right	Yes	1.18797000031918	0	451980	253
883.951171875	0	health	response	2	110	50	foodImage.29	FOODEEG_Images\0278.jpg	NY	Right	Yes	1.18797000031918	0	452584	235
884.990234375	1	taste	trialStart	2	111	51	foodImage.6	FOODEEG_Images\0113.jpg	NY	Right	Yes	2.04285860015079	0	453116	251
886.033203125	2	taste	foodImageDisplay	2	111	51	foodImage.6	FOODEEG_Images\0113.jpg	NY	Right	Yes	2.04285860015079	0	453650	252
888.09375	2.04285860015079	taste	choicePhaseStart	2	111	51	foodImage.6	FOODEEG_Images\0113.jpg	NY	Right	Yes	2.04285860015079	0	454705	253
890.126953125	0	taste	response	2	111	51	foodImage.6	FOODEEG_Images\0113.jpg	NY	Right	Yes	2.04285860015079	0	455746	235
891.17578125	1	health	trialStart	2	112	52	foodImage.118	FOODEEG_Images\0926.jpg	YN	Left	Yes	2.01390019990504	0	456283	251
892.212890625	2	health	foodImageDisplay	2	112	52	foodImage.118	FOODEEG_Images\0926.jpg	YN	Left	Yes	2.01390019990504	0	456814	252
894.275390625	2.01390019990504	health	choicePhaseStart	2	112	52	foodImage.118	FOODEEG_Images\0926.jpg	YN	Left	Yes	2.01390019990504	0	457870	253
896.279296875	0	health	response	2	112	52	foodImage.118	FOODEEG_Images\0926.jpg	YN	Left	Yes	2.01390019990504	0	458896	234
897.32421875	1	taste	trialStart	2	113	53	foodImage.91	FOODEEG_Images\0896.jpg	NY	Right	Yes	1.40394320013002	0	459431	251
898.3828125	2	taste	foodImageDisplay	2	113	53	foodImage.91	FOODEEG_Images\0896.jpg	NY	Right	Yes	1.40394320013002	0	459973	252
900.4453125	1.40394320013002	taste	choicePhaseStart	2	113	53	foodImage.91	FOODEEG_Images\0896.jpg	NY	Right	Yes	1.40394320013002	0	461029	253
901.83984375	0	taste	response	2	113	53	foodImage.91	FOODEEG_Images\0896.jpg	NY	Right	Yes	1.40394320013002	0	461743	235
902.8828125	1	taste	trialStart	2	114	54	foodImage.49	FOODEEG_Images\0515.jpg	NY	Right	Yes	1.52473529987037	0	462277	251
903.923828125	2	taste	foodImageDisplay	2	114	54	foodImage.49	FOODEEG_Images\0515.jpg	NY	Right	Yes	1.52473529987037	0	462810	252
905.986328125	1.52473529987037	taste	choicePhaseStart	2	114	54	foodImage.49	FOODEEG_Images\0515.jpg	NY	Right	Yes	1.52473529987037	0	463866	253
907.50390625	0	taste	response	2	114	54	foodImage.49	FOODEEG_Images\0515.jpg	NY	Right	Yes	1.52473529987037	0	464643	235
908.546875	1	health	trialStart	2	115	55	foodImage.88	FOODEEG_Images\0878.jpg	YN	Right	No	1.51762530021369	0	465177	251
909.603515625	2	health	foodImageDisplay	2	115	55	foodImage.88	FOODEEG_Images\0878.jpg	YN	Right	No	1.51762530021369	0	465718	252
911.666015625	1.51762530021369	health	choicePhaseStart	2	115	55	foodImage.88	FOODEEG_Images\0878.jpg	YN	Right	No	1.51762530021369	0	466774	253
913.17578125	0	health	response	2	115	55	foodImage.88	FOODEEG_Images\0878.jpg	YN	Right	No	1.51762530021369	0	467547	235
914.216796875	1	taste	trialStart	2	116	56	foodImage.22	FOODEEG_Images\0236.jpg	NY	Right	Yes	2.51205549994484	0	468080	251
915.255859375	2	taste	foodImageDisplay	2	116	56	foodImage.22	FOODEEG_Images\0236.jpg	NY	Right	Yes	2.51205549994484	0	468612	252
917.318359375	2.51205549994484	taste	choicePhaseStart	2	116	56	foodImage.22	FOODEEG_Images\0236.jpg	NY	Right	Yes	2.51205549994484	0	469668	253
919.822265625	0	taste	response	2	116	56	foodImage.22	FOODEEG_Images\0236.jpg	NY	Right	Yes	2.51205549994484	0	470950	235
920.865234375	1	decision	trialStart	2	117	57	foodImage.12	FOODEEG_Images\0181.jpg	YN	Right	No	1.83627580013126	0	471484	251
921.91015625	2	decision	foodImageDisplay	2	117	57	foodImage.12	FOODEEG_Images\0181.jpg	YN	Right	No	1.83627580013126	0	472019	252
923.97265625	1.83627580013126	decision	choicePhaseStart	2	117	57	foodImage.12	FOODEEG_Images\0181.jpg	YN	Right	No	1.83627580013126	0	473075	253
925.798828125	0	decision	response	2	117	57	foodImage.12	FOODEEG_Images\0181.jpg	YN	Right	No	1.83627580013126	0	474010	235
926.841796875	1	decision	trialStart	2	118	58	foodImage.65	FOODEEG_Images\0658.jpg	YN	Right	No	1.2197716999799	0	474544	251
927.884765625	2	decision	foodImageDisplay	2	118	58	foodImage.65	FOODEEG_Images\0658.jpg	YN	Right	No	1.2197716999799	0	475078	252
929.947265625	1.2197716999799	decision	choicePhaseStart	2	118	58	foodImage.65	FOODEEG_Images\0658.jpg	YN	Right	No	1.2197716999799	0	476134	253
931.158203125	0	decision	response	2	118	58	foodImage.65	FOODEEG_Images\0658.jpg	YN	Right	No	1.2197716999799	0	476754	235
932.201171875	1	health	trialStart	2	119	59	foodImage.46	FOODEEG_Images\0479.jpg	NY	Right	Yes	1.20857849996537	0	477288	251
933.255859375	2	health	foodImageDisplay	2	119	59	foodImage.46	FOODEEG_Images\0479.jpg	NY	Right	Yes	1.20857849996537	0	477828	252
935.318359375	1.20857849996537	health	choicePhaseStart	2	119	59	foodImage.46	FOODEEG_Images\0479.jpg	NY	Right	Yes	1.20857849996537	0	478884	253
936.517578125	0	health	response	2	119	59	foodImage.46	FOODEEG_Images\0479.jpg	NY	Right	Yes	1.20857849996537	0	479498	235
937.560546875	1	taste	trialStart	2	120	60	foodImage.118	FOODEEG_Images\0926.jpg	NY	Left	No	0.634697699919343	0	480032	251
938.59765625	2	taste	foodImageDisplay	2	120	60	foodImage.118	FOODEEG_Images\0926.jpg	NY	Left	No	0.634697699919343	0	480563	252
940.66015625	0.634697699919343	taste	choicePhaseStart	2	120	60	foodImage.118	FOODEEG_Images\0926.jpg	NY	Left	No	0.634697699919343	0	481619	253
941.28515625	0	taste	response	2	120	60	foodImage.118	FOODEEG_Images\0926.jpg	NY	Left	No	0.634697699919343	0	481939	234
943.326171875	69.123046875	n/a	blockEnd	n/a	n/a	n/a	n/a	n/a	n/a	n/a	n/a	n/a	n/a	482984	254
1012.44921875	2	n/a	blockStart	3	n/a	n/a	n/a	n/a	n/a	n/a	n/a	n/a	n/a	518375	250
1014.482421875	1	taste	trialStart	3	121	1	foodImage.40	FOODEEG_Images\0373.jpg	NY	Right	Yes	0.912112399935722	0	519416	251
1015.5234375	2	taste	foodImageDisplay	3	121	1	foodImage.40	FOODEEG_Images\0373.jpg	NY	Right	Yes	0.912112399935722	0	519949	252
1017.5859375	0.912112399935722	taste	choicePhaseStart	3	121	1	foodImage.40	FOODEEG_Images\0373.jpg	NY	Right	Yes	0.912112399935722	0	521005	253
1018.490234375	0	taste	response	3	121	1	foodImage.40	FOODEEG_Images\0373.jpg	NY	Right	Yes	0.912112399935722	0	521468	235
1019.53515625	1	health	trialStart	3	122	2	foodImage.37	FOODEEG_Images\0359.jpg	NY	Right	Yes	0.749244600068778	0	522003	251
1020.591796875	2	health	foodImageDisplay	3	122	2	foodImage.37	FOODEEG_Images\0359.jpg	NY	Right	Yes	0.749244600068778	0	522544	252
1022.654296875	0.749244600068778	health	choicePhaseStart	3	122	2	foodImage.37	FOODEEG_Images\0359.jpg	NY	Right	Yes	0.749244600068778	0	523600	253
1023.39453125	0	health	response	3	122	2	foodImage.37	FOODEEG_Images\0359.jpg	NY	Right	Yes	0.749244600068778	0	523979	235
1024.4375	1	taste	trialStart	3	123	3	foodImage.47	FOODEEG_Images\0488.jpg	YN	Right	No	0.66879290016368	0	524513	251
1025.48046875	2	taste	foodImageDisplay	3	123	3	foodImage.47	FOODEEG_Images\0488.jpg	YN	Right	No	0.66879290016368	0	525047	252
1027.54296875	0.66879290016368	taste	choicePhaseStart	3	123	3	foodImage.47	FOODEEG_Images\0488.jpg	YN	Right	No	0.66879290016368	0	526103	253
1028.201171875	0	taste	response	3	123	3	foodImage.47	FOODEEG_Images\0488.jpg	YN	Right	No	0.66879290016368	0	526440	235
1029.24609375	1	decision	trialStart	3	124	4	foodImage.28	FOODEEG_Images\0273.jpg	YN	Right	No	0.78736379975453	0	526975	251
1030.2890625	2	decision	foodImageDisplay	3	124	4	foodImage.28	FOODEEG_Images\0273.jpg	YN	Right	No	0.78736379975453	0	527509	252
1032.3515625	0.78736379975453	decision	choicePhaseStart	3	124	4	foodImage.28	FOODEEG_Images\0273.jpg	YN	Right	No	0.78736379975453	0	528565	253
1033.130859375	0	decision	response	3	124	4	foodImage.28	FOODEEG_Images\0273.jpg	YN	Right	No	0.78736379975453	0	528964	235
1034.17578125	1	health	trialStart	3	125	5	foodImage.6	FOODEEG_Images\0113.jpg	NY	Right	Yes	1.61060970043764	0	529499	251
1035.21875	2	health	foodImageDisplay	3	125	5	foodImage.6	FOODEEG_Images\0113.jpg	NY	Right	Yes	1.61060970043764	0	530033	252
1037.28125	1.61060970043764	health	choicePhaseStart	3	125	5	foodImage.6	FOODEEG_Images\0113.jpg	NY	Right	Yes	1.61060970043764	0	531089	253
1038.8828125	0	health	response	3	125	5	foodImage.6	FOODEEG_Images\0113.jpg	NY	Right	Yes	1.61060970043764	0	531909	235
1039.92578125	1	decision	trialStart	3	126	6	foodImage.60	FOODEEG_Images\0614.jpg	NY	Left	No	1.58690939983353	0	532443	251
1040.984375	2	decision	foodImageDisplay	3	126	6	foodImage.60	FOODEEG_Images\0614.jpg	NY	Left	No	1.58690939983353	0	532985	252
1043.046875	1.58690939983353	decision	choicePhaseStart	3	126	6	foodImage.60	FOODEEG_Images\0614.jpg	NY	Left	No	1.58690939983353	0	534041	253
1044.625	0	decision	response	3	126	6	foodImage.60	FOODEEG_Images\0614.jpg	NY	Left	No	1.58690939983353	0	534849	234
1045.669921875	1	taste	trialStart	3	127	7	foodImage.33	FOODEEG_Images\0329.jpg	YN	Left	Yes	0.996232399716973	0	535384	251
1046.7109375	2	taste	foodImageDisplay	3	127	7	foodImage.33	FOODEEG_Images\0329.jpg	YN	Left	Yes	0.996232399716973	0	535917	252
1048.7734375	0.996232399716973	taste	choicePhaseStart	3	127	7	foodImage.33	FOODEEG_Images\0329.jpg	YN	Left	Yes	0.996232399716973	0	536973	253
1049.76171875	0	taste	response	3	127	7	foodImage.33	FOODEEG_Images\0329.jpg	YN	Left	Yes	0.996232399716973	0	537479	234
1050.80078125	1	health	trialStart	3	128	8	foodImage.91	FOODEEG_Images\0896.jpg	YN	Left	Yes	0.850508299656212	0	538011	251
1051.857421875	2	health	foodImageDisplay	3	128	8	foodImage.91	FOODEEG_Images\0896.jpg	YN	Left	Yes	0.850508299656212	0	538552	252
1053.919921875	0.850508299656212	health	choicePhaseStart	3	128	8	foodImage.91	FOODEEG_Images\0896.jpg	YN	Left	Yes	0.850508299656212	0	539608	253
1054.76171875	0	health	response	3	128	8	foodImage.91	FOODEEG_Images\0896.jpg	YN	Left	Yes	0.850508299656212	0	540039	234
1055.802734375	1	health	trialStart	3	129	9	foodImage.56	FOODEEG_Images\0586.jpg	NY	Right	Yes	4.24020239990205	0	540572	251
1056.84375	2	health	foodImageDisplay	3	129	9	foodImage.56	FOODEEG_Images\0586.jpg	NY	Right	Yes	4.24020239990205	0	541105	252
1058.90625	4.24020239990205	health	choicePhaseStart	3	129	9	foodImage.56	FOODEEG_Images\0586.jpg	NY	Right	Yes	4.24020239990205	0	542161	253
1063.13671875	0	health	response	3	129	9	foodImage.56	FOODEEG_Images\0586.jpg	NY	Right	Yes	4.24020239990205	0	544327	235
1064.181640625	1	decision	trialStart	3	130	10	foodImage.11	FOODEEG_Images\0180.jpg	NY	Left	No	1.77689070021734	0	544862	251
1065.22265625	2	decision	foodImageDisplay	3	130	10	foodImage.11	FOODEEG_Images\0180.jpg	NY	Left	No	1.77689070021734	0	545395	252
1067.2890625	1.77689070021734	decision	choicePhaseStart	3	130	10	foodImage.11	FOODEEG_Images\0180.jpg	NY	Left	No	1.77689070021734	0	546453	253
1069.056640625	0	decision	response	3	130	10	foodImage.11	FOODEEG_Images\0180.jpg	NY	Left	No	1.77689070021734	0	547358	234
1070.099609375	1	decision	trialStart	3	131	11	foodImage.88	FOODEEG_Images\0878.jpg	YN	Left	Yes	1.33659509988502	0	547892	251
1071.154296875	2	decision	foodImageDisplay	3	131	11	foodImage.88	FOODEEG_Images\0878.jpg	YN	Left	Yes	1.33659509988502	0	548432	252
1073.216796875	1.33659509988502	decision	choicePhaseStart	3	131	11	foodImage.88	FOODEEG_Images\0878.jpg	YN	Left	Yes	1.33659509988502	0	549488	253
1074.544921875	0	decision	response	3	131	11	foodImage.88	FOODEEG_Images\0878.jpg	YN	Left	Yes	1.33659509988502	0	550168	234
1075.5859375	1	decision	trialStart	3	132	12	foodImage.86	FOODEEG_Images\0844.jpg	NY	Right	Yes	1.2269302001223	0	550701	251
1076.64453125	2	decision	foodImageDisplay	3	132	12	foodImage.86	FOODEEG_Images\0844.jpg	NY	Right	Yes	1.2269302001223	0	551243	252
1078.70703125	1.2269302001223	decision	choicePhaseStart	3	132	12	foodImage.86	FOODEEG_Images\0844.jpg	NY	Right	Yes	1.2269302001223	0	552299	253
1079.927734375	0	decision	response	3	132	12	foodImage.86	FOODEEG_Images\0844.jpg	NY	Right	Yes	1.2269302001223	0	552924	235
1080.96875	1	decision	trialStart	3	133	13	foodImage.69	FOODEEG_Images\0693.jpg	YN	Left	Yes	1.60276819998398	0	553457	251
1082.009765625	2	decision	foodImageDisplay	3	133	13	foodImage.69	FOODEEG_Images\0693.jpg	YN	Left	Yes	1.60276819998398	0	553990	252
1084.078125	1.60276819998398	decision	choicePhaseStart	3	133	13	foodImage.69	FOODEEG_Images\0693.jpg	YN	Left	Yes	1.60276819998398	0	555049	253
1085.671875	0	decision	response	3	133	13	foodImage.69	FOODEEG_Images\0693.jpg	YN	Left	Yes	1.60276819998398	0	555865	234
1086.71484375	1	taste	trialStart	3	134	14	foodImage.19	FOODEEG_Images\0225.jpg	YN	Right	No	1.31700329994783	0	556399	251
1087.7578125	2	taste	foodImageDisplay	3	134	14	foodImage.19	FOODEEG_Images\0225.jpg	YN	Right	No	1.31700329994783	0	556933	252
1089.8203125	1.31700329994783	taste	choicePhaseStart	3	134	14	foodImage.19	FOODEEG_Images\0225.jpg	YN	Right	No	1.31700329994783	0	557989	253
1091.12890625	0	taste	response	3	134	14	foodImage.19	FOODEEG_Images\0225.jpg	YN	Right	No	1.31700329994783	0	558659	235
1092.16796875	1	taste	trialStart	3	135	15	foodImage.56	FOODEEG_Images\0586.jpg	YN	Left	Yes	0.668990100268275	0	559191	251
1093.208984375	2	taste	foodImageDisplay	3	135	15	foodImage.56	FOODEEG_Images\0586.jpg	YN	Left	Yes	0.668990100268275	0	559724	252
1095.275390625	0.668990100268275	taste	choicePhaseStart	3	135	15	foodImage.56	FOODEEG_Images\0586.jpg	YN	Left	Yes	0.668990100268275	0	560782	253
1095.935546875	0	taste	response	3	135	15	foodImage.56	FOODEEG_Images\0586.jpg	YN	Left	Yes	0.668990100268275	0	561120	234
1096.978515625	1	decision	trialStart	3	136	16	foodImage.51	FOODEEG_Images\0536.jpg	YN	Left	Yes	0.71232429984957	0	561654	251
1098.025390625	2	decision	foodImageDisplay	3	136	16	foodImage.51	FOODEEG_Images\0536.jpg	YN	Left	Yes	0.71232429984957	0	562190	252
1100.087890625	0.71232429984957	decision	choicePhaseStart	3	136	16	foodImage.51	FOODEEG_Images\0536.jpg	YN	Left	Yes	0.71232429984957	0	563246	253
1100.791015625	0	decision	response	3	136	16	foodImage.51	FOODEEG_Images\0536.jpg	YN	Left	Yes	0.71232429984957	0	563606	234
1101.8359375	1	health	trialStart	3	137	17	foodImage.77	FOODEEG_Images\0771.jpg	NY	Right	Yes	1.35616850014776	0	564141	251
1102.876953125	2	health	foodImageDisplay	3	137	17	foodImage.77	FOODEEG_Images\0771.jpg	NY	Right	Yes	1.35616850014776	0	564674	252
1104.939453125	1.35616850014776	health	choicePhaseStart	3	137	17	foodImage.77	FOODEEG_Images\0771.jpg	NY	Right	Yes	1.35616850014776	0	565730	253
1106.287109375	0	health	response	3	137	17	foodImage.77	FOODEEG_Images\0771.jpg	NY	Right	Yes	1.35616850014776	0	566420	235
1107.33203125	1	taste	trialStart	3	138	18	foodImage.53	FOODEEG_Images\0547.jpg	YN	Left	Yes	0.630293200258166	0	566955	251
1108.38671875	2	taste	foodImageDisplay	3	138	18	foodImage.53	FOODEEG_Images\0547.jpg	YN	Left	Yes	0.630293200258166	0	567495	252
1110.44921875	0.630293200258166	taste	choicePhaseStart	3	138	18	foodImage.53	FOODEEG_Images\0547.jpg	YN	Left	Yes	0.630293200258166	0	568551	253
1111.0703125	0	taste	response	3	138	18	foodImage.53	FOODEEG_Images\0547.jpg	YN	Left	Yes	0.630293200258166	0	568869	234
1112.115234375	1	health	trialStart	3	139	19	foodImage.111	FOODEEG_Images\0919.jpg	YN	Right	No	1.44302089978009	0	569404	251
1113.15234375	2	health	foodImageDisplay	3	139	19	foodImage.111	FOODEEG_Images\0919.jpg	YN	Right	No	1.44302089978009	0	569935	252
1115.212890625	1.44302089978009	health	choicePhaseStart	3	139	19	foodImage.111	FOODEEG_Images\0919.jpg	YN	Right	No	1.44302089978009	0	570990	253
1116.646484375	0	health	response	3	139	19	foodImage.111	FOODEEG_Images\0919.jpg	YN	Right	No	1.44302089978009	0	571724	235
1117.689453125	1	health	trialStart	3	140	20	foodImage.41	FOODEEG_Images\0409.jpg	YN	Left	Yes	0.60842529963702	0	572258	251
1118.734375	2	health	foodImageDisplay	3	140	20	foodImage.41	FOODEEG_Images\0409.jpg	YN	Left	Yes	0.60842529963702	0	572793	252
1120.798828125	0.60842529963702	health	choicePhaseStart	3	140	20	foodImage.41	FOODEEG_Images\0409.jpg	YN	Left	Yes	0.60842529963702	0	573850	253
1121.3984375	0	health	response	3	140	20	foodImage.41	FOODEEG_Images\0409.jpg	YN	Left	Yes	0.60842529963702	0	574157	234
1122.439453125	1	taste	trialStart	3	141	21	foodImage.117	FOODEEG_Images\0925.jpg	YN	Left	Yes	0.86704030027613	0	574690	251
1123.478515625	2	taste	foodImageDisplay	3	141	21	foodImage.117	FOODEEG_Images\0925.jpg	YN	Left	Yes	0.86704030027613	0	575222	252
1125.541015625	0.86704030027613	taste	choicePhaseStart	3	141	21	foodImage.117	FOODEEG_Images\0925.jpg	YN	Left	Yes	0.86704030027613	0	576278	253
1126.3984375	0	taste	response	3	141	21	foodImage.117	FOODEEG_Images\0925.jpg	YN	Left	Yes	0.86704030027613	0	576717	234
1127.44140625	1	decision	trialStart	3	142	22	foodImage.3	FOODEEG_Images\0046.jpg	YN	Right	No	1.54832529975101	0	577251	251
1128.484375	2	decision	foodImageDisplay	3	142	22	foodImage.3	FOODEEG_Images\0046.jpg	YN	Right	No	1.54832529975101	0	577785	252
1130.544921875	1.54832529975101	decision	choicePhaseStart	3	142	22	foodImage.3	FOODEEG_Images\0046.jpg	YN	Right	No	1.54832529975101	0	578840	253
1132.0859375	0	decision	response	3	142	22	foodImage.3	FOODEEG_Images\0046.jpg	YN	Right	No	1.54832529975101	0	579629	235
1133.130859375	1	health	trialStart	3	143	23	foodImage.20	FOODEEG_Images\0226.jpg	NY	Left	No	0.740293599665165	0	580164	251
1134.171875	2	health	foodImageDisplay	3	143	23	foodImage.20	FOODEEG_Images\0226.jpg	NY	Left	No	0.740293599665165	0	580697	252
1136.234375	0.740293599665165	health	choicePhaseStart	3	143	23	foodImage.20	FOODEEG_Images\0226.jpg	NY	Left	No	0.740293599665165	0	581753	253
1136.966796875	0	health	response	3	143	23	foodImage.20	FOODEEG_Images\0226.jpg	NY	Left	No	0.740293599665165	0	582128	234
1138.0078125	1	decision	trialStart	3	144	24	foodImage.58	FOODEEG_Images\0605.jpg	YN	Left	Yes	1.43126509990543	0	582661	251
1139.064453125	2	decision	foodImageDisplay	3	144	24	foodImage.58	FOODEEG_Images\0605.jpg	YN	Left	Yes	1.43126509990543	0	583202	252
1141.126953125	1.43126509990543	decision	choicePhaseStart	3	144	24	foodImage.58	FOODEEG_Images\0605.jpg	YN	Left	Yes	1.43126509990543	0	584258	253
1142.55078125	0	decision	response	3	144	24	foodImage.58	FOODEEG_Images\0605.jpg	YN	Left	Yes	1.43126509990543	0	584987	234
1143.59375	1	health	trialStart	3	145	25	foodImage.53	FOODEEG_Images\0547.jpg	YN	Right	No	1.35164069989696	0	585521	251
1144.6484375	2	health	foodImageDisplay	3	145	25	foodImage.53	FOODEEG_Images\0547.jpg	YN	Right	No	1.35164069989696	0	586061	252
1146.7109375	1.35164069989696	health	choicePhaseStart	3	145	25	foodImage.53	FOODEEG_Images\0547.jpg	YN	Right	No	1.35164069989696	0	587117	253
1148.0546875	0	health	response	3	145	25	foodImage.53	FOODEEG_Images\0547.jpg	YN	Right	No	1.35164069989696	0	587805	235
1149.09765625	1	health	trialStart	3	146	26	foodImage.75	FOODEEG_Images\0763.jpg	YN	Left	Yes	1.10524319997057	0	588339	251
1150.140625	2	health	foodImageDisplay	3	146	26	foodImage.75	FOODEEG_Images\0763.jpg	YN	Left	Yes	1.10524319997057	0	588873	252
1152.203125	1.10524319997057	health	choicePhaseStart	3	146	26	foodImage.75	FOODEEG_Images\0763.jpg	YN	Left	Yes	1.10524319997057	0	589929	253
1153.30078125	0	health	response	3	146	26	foodImage.75	FOODEEG_Images\0763.jpg	YN	Left	Yes	1.10524319997057	0	590491	234
1154.345703125	1	health	trialStart	3	147	27	foodImage.42	FOODEEG_Images\0438.jpg	NY	Right	Yes	0.888296500314027	0	591026	251
1155.439453125	2	health	foodImageDisplay	3	147	27	foodImage.42	FOODEEG_Images\0438.jpg	NY	Right	Yes	0.888296500314027	0	591586	252
1157.501953125	0.888296500314027	health	choicePhaseStart	3	147	27	foodImage.42	FOODEEG_Images\0438.jpg	NY	Right	Yes	0.888296500314027	0	592642	253
1158.380859375	0	health	response	3	147	27	foodImage.42	FOODEEG_Images\0438.jpg	NY	Right	Yes	0.888296500314027	0	593092	235
1159.423828125	1	taste	trialStart	3	148	28	foodImage.114	FOODEEG_Images\0922.jpg	YN	Right	No	0.916536999866366	0	593626	251
1160.46875	2	taste	foodImageDisplay	3	148	28	foodImage.114	FOODEEG_Images\0922.jpg	YN	Right	No	0.916536999866366	0	594161	252
1162.529296875	0.916536999866366	taste	choicePhaseStart	3	148	28	foodImage.114	FOODEEG_Images\0922.jpg	YN	Right	No	0.916536999866366	0	595216	253
1163.4375	0	taste	response	3	148	28	foodImage.114	FOODEEG_Images\0922.jpg	YN	Right	No	0.916536999866366	0	595681	235
1164.48046875	1	decision	trialStart	3	149	29	foodImage.24	FOODEEG_Images\0250.jpg	NY	Right	Yes	0.874093600083143	0	596215	251
1165.51953125	2	decision	foodImageDisplay	3	149	29	foodImage.24	FOODEEG_Images\0250.jpg	NY	Right	Yes	0.874093600083143	0	596747	252
1167.58203125	0.874093600083143	decision	choicePhaseStart	3	149	29	foodImage.24	FOODEEG_Images\0250.jpg	NY	Right	Yes	0.874093600083143	0	597803	253
1168.4453125	0	decision	response	3	149	29	foodImage.24	FOODEEG_Images\0250.jpg	NY	Right	Yes	0.874093600083143	0	598245	235
1169.494140625	1	taste	trialStart	3	150	30	foodImage.72	FOODEEG_Images\0714.jpg	NY	Left	No	1.27395429974422	0	598782	251
1170.533203125	2	taste	foodImageDisplay	3	150	30	foodImage.72	FOODEEG_Images\0714.jpg	NY	Left	No	1.27395429974422	0	599314	252
1172.595703125	1.27395429974422	taste	choicePhaseStart	3	150	30	foodImage.72	FOODEEG_Images\0714.jpg	NY	Left	No	1.27395429974422	0	600370	253
1173.861328125	0	taste	response	3	150	30	foodImage.72	FOODEEG_Images\0714.jpg	NY	Left	No	1.27395429974422	0	601018	234
1174.904296875	1	health	trialStart	3	151	31	foodImage.23	FOODEEG_Images\0244.jpg	NY	Right	Yes	1.50991920009255	0	601552	251
1175.9453125	2	health	foodImageDisplay	3	151	31	foodImage.23	FOODEEG_Images\0244.jpg	NY	Right	Yes	1.50991920009255	0	602085	252
1178.0078125	1.50991920009255	health	choicePhaseStart	3	151	31	foodImage.23	FOODEEG_Images\0244.jpg	NY	Right	Yes	1.50991920009255	0	603141	253
1179.5078125	0	health	response	3	151	31	foodImage.23	FOODEEG_Images\0244.jpg	NY	Right	Yes	1.50991920009255	0	603909	235
1180.552734375	1	decision	trialStart	3	152	32	foodImage.83	FOODEEG_Images\0827.jpg	YN	Right	No	1.5109605002217	0	604444	251
1181.607421875	2	decision	foodImageDisplay	3	152	32	foodImage.83	FOODEEG_Images\0827.jpg	YN	Right	No	1.5109605002217	0	604984	252
1183.669921875	1.5109605002217	decision	choicePhaseStart	3	152	32	foodImage.83	FOODEEG_Images\0827.jpg	YN	Right	No	1.5109605002217	0	606040	253
1185.171875	0	decision	response	3	152	32	foodImage.83	FOODEEG_Images\0827.jpg	YN	Right	No	1.5109605002217	0	606809	235
1186.216796875	1	decision	trialStart	3	153	33	foodImage.15	FOODEEG_Images\0189.jpg	NY	Left	No	2.947875500191	0	607344	251
1187.275390625	2	decision	foodImageDisplay	3	153	33	foodImage.15	FOODEEG_Images\0189.jpg	NY	Left	No	2.947875500191	0	607886	252
1189.337890625	2.947875500191	decision	choicePhaseStart	3	153	33	foodImage.15	FOODEEG_Images\0189.jpg	NY	Left	No	2.947875500191	0	608942	253
1192.275390625	0	decision	response	3	153	33	foodImage.15	FOODEEG_Images\0189.jpg	NY	Left	No	2.947875500191	0	610446	234
1193.3203125	1	taste	trialStart	3	154	34	foodImage.97	FOODEEG_Images\0905.jpg	YN	Right	No	0.790023999754339	0	610981	251
1194.359375	2	taste	foodImageDisplay	3	154	34	foodImage.97	FOODEEG_Images\0905.jpg	YN	Right	No	0.790023999754339	0	611513	252
1196.423828125	0.790023999754339	taste	choicePhaseStart	3	154	34	foodImage.97	FOODEEG_Images\0905.jpg	YN	Right	No	0.790023999754339	0	612570	253
1197.203125	0	taste	response	3	154	34	foodImage.97	FOODEEG_Images\0905.jpg	YN	Right	No	0.790023999754339	0	612969	235
1198.248046875	1	health	trialStart	3	155	35	foodImage.22	FOODEEG_Images\0236.jpg	NY	Right	Yes	0.884667399805039	0	613504	251
1199.2890625	2	health	foodImageDisplay	3	155	35	foodImage.22	FOODEEG_Images\0236.jpg	NY	Right	Yes	0.884667399805039	0	614037	252
1201.3515625	0.884667399805039	health	choicePhaseStart	3	155	35	foodImage.22	FOODEEG_Images\0236.jpg	NY	Right	Yes	0.884667399805039	0	615093	253
1202.228515625	0	health	response	3	155	35	foodImage.22	FOODEEG_Images\0236.jpg	NY	Right	Yes	0.884667399805039	0	615542	235
1203.26953125	1	health	trialStart	3	156	36	foodImage.79	FOODEEG_Images\0794.jpg	NY	Right	Yes	0.597657599952072	0	616075	251
1204.3125	2	health	foodImageDisplay	3	156	36	foodImage.79	FOODEEG_Images\0794.jpg	NY	Right	Yes	0.597657599952072	0	616609	252
1206.375	0.597657599952072	health	choicePhaseStart	3	156	36	foodImage.79	FOODEEG_Images\0794.jpg	NY	Right	Yes	0.597657599952072	0	617665	253
1206.96484375	0	health	response	3	156	36	foodImage.79	FOODEEG_Images\0794.jpg	NY	Right	Yes	0.597657599952072	0	617967	235
1208.0078125	1	taste	trialStart	3	157	37	foodImage.98	FOODEEG_Images\0906.jpg	NY	Left	No	0.927359899971634	0	618501	251
1209.046875	2	taste	foodImageDisplay	3	157	37	foodImage.98	FOODEEG_Images\0906.jpg	NY	Left	No	0.927359899971634	0	619033	252
1211.109375	0.927359899971634	taste	choicePhaseStart	3	157	37	foodImage.98	FOODEEG_Images\0906.jpg	NY	Left	No	0.927359899971634	0	620089	253
1212.02734375	0	taste	response	3	157	37	foodImage.98	FOODEEG_Images\0906.jpg	NY	Left	No	0.927359899971634	0	620559	234
1213.0703125	1	taste	trialStart	3	158	38	foodImage.18	FOODEEG_Images\0202.jpg	NY	Right	Yes	2.06203689984977	0	621093	251
1214.140625	2	taste	foodImageDisplay	3	158	38	foodImage.18	FOODEEG_Images\0202.jpg	NY	Right	Yes	2.06203689984977	0	621641	252
1216.203125	2.06203689984977	taste	choicePhaseStart	3	158	38	foodImage.18	FOODEEG_Images\0202.jpg	NY	Right	Yes	2.06203689984977	0	622697	253
1218.259765625	0	taste	response	3	158	38	foodImage.18	FOODEEG_Images\0202.jpg	NY	Right	Yes	2.06203689984977	0	623750	235
1219.302734375	1	decision	trialStart	3	159	39	foodImage.107	FOODEEG_Images\0915.jpg	YN	Right	No	0.830747699830681	0	624284	251
1220.341796875	2	decision	foodImageDisplay	3	159	39	foodImage.107	FOODEEG_Images\0915.jpg	YN	Right	No	0.830747699830681	0	624816	252
1222.404296875	0.830747699830681	decision	choicePhaseStart	3	159	39	foodImage.107	FOODEEG_Images\0915.jpg	YN	Right	No	0.830747699830681	0	625872	253
1223.2265625	0	decision	response	3	159	39	foodImage.107	FOODEEG_Images\0915.jpg	YN	Right	No	0.830747699830681	0	626293	235
1224.26953125	1	health	trialStart	3	160	40	foodImage.110	FOODEEG_Images\0918.jpg	YN	Right	No	1.0154121001251	0	626827	251
1225.30859375	2	health	foodImageDisplay	3	160	40	foodImage.110	FOODEEG_Images\0918.jpg	YN	Right	No	1.0154121001251	0	627359	252
1227.37109375	1.0154121001251	health	choicePhaseStart	3	160	40	foodImage.110	FOODEEG_Images\0918.jpg	YN	Right	No	1.0154121001251	0	628415	253
1228.37890625	0	health	response	3	160	40	foodImage.110	FOODEEG_Images\0918.jpg	YN	Right	No	1.0154121001251	0	628931	235
1229.421875	1	decision	trialStart	3	161	41	foodImage.42	FOODEEG_Images\0438.jpg	NY	Right	Yes	1.32012620009482	0	629465	251
1230.509765625	2	decision	foodImageDisplay	3	161	41	foodImage.42	FOODEEG_Images\0438.jpg	NY	Right	Yes	1.32012620009482	0	630022	252
1232.572265625	1.32012620009482	decision	choicePhaseStart	3	161	41	foodImage.42	FOODEEG_Images\0438.jpg	NY	Right	Yes	1.32012620009482	0	631078	253
1233.8828125	0	decision	response	3	161	41	foodImage.42	FOODEEG_Images\0438.jpg	NY	Right	Yes	1.32012620009482	0	631749	235
1234.921875	1	taste	trialStart	3	162	42	foodImage.43	FOODEEG_Images\0445.jpg	YN	Left	Yes	1.27838749997318	0	632281	251
1235.982421875	2	taste	foodImageDisplay	3	162	42	foodImage.43	FOODEEG_Images\0445.jpg	YN	Left	Yes	1.27838749997318	0	632824	252
1238.044921875	1.27838749997318	taste	choicePhaseStart	3	162	42	foodImage.43	FOODEEG_Images\0445.jpg	YN	Left	Yes	1.27838749997318	0	633880	253
1239.314453125	0	taste	response	3	162	42	foodImage.43	FOODEEG_Images\0445.jpg	YN	Left	Yes	1.27838749997318	0	634530	234
1240.357421875	1	health	trialStart	3	163	43	foodImage.35	FOODEEG_Images\0350.jpg	YN	Right	No	1.14296500012279	0	635064	251
1241.3984375	2	health	foodImageDisplay	3	163	43	foodImage.35	FOODEEG_Images\0350.jpg	YN	Right	No	1.14296500012279	0	635597	252
1243.4609375	1.14296500012279	health	choicePhaseStart	3	163	43	foodImage.35	FOODEEG_Images\0350.jpg	YN	Right	No	1.14296500012279	0	636653	253
1244.59375	0	health	response	3	163	43	foodImage.35	FOODEEG_Images\0350.jpg	YN	Right	No	1.14296500012279	0	637233	235
1245.63671875	1	taste	trialStart	3	164	44	foodImage.92	FOODEEG_Images\0900.jpg	NY	Left	No	0.760604599956423	0	637767	251
1246.67578125	2	taste	foodImageDisplay	3	164	44	foodImage.92	FOODEEG_Images\0900.jpg	NY	Left	No	0.760604599956423	0	638299	252
1248.73828125	0.760604599956423	taste	choicePhaseStart	3	164	44	foodImage.92	FOODEEG_Images\0900.jpg	NY	Left	No	0.760604599956423	0	639355	253
1249.490234375	0	taste	response	3	164	44	foodImage.92	FOODEEG_Images\0900.jpg	NY	Left	No	0.760604599956423	0	639740	234
1250.533203125	1	health	trialStart	3	165	45	foodImage.82	FOODEEG_Images\0805.jpg	YN	Right	No	1.74229060020298	0	640274	251
1251.58984375	2	health	foodImageDisplay	3	165	45	foodImage.82	FOODEEG_Images\0805.jpg	YN	Right	No	1.74229060020298	0	640815	252
1253.65234375	1.74229060020298	health	choicePhaseStart	3	165	45	foodImage.82	FOODEEG_Images\0805.jpg	YN	Right	No	1.74229060020298	0	641871	253
1255.384765625	0	health	response	3	165	45	foodImage.82	FOODEEG_Images\0805.jpg	YN	Right	No	1.74229060020298	0	642758	235
1256.427734375	1	health	trialStart	3	166	46	foodImage.108	FOODEEG_Images\0916.jpg	YN	Right	No	1.44965299963951	0	643292	251
1257.482421875	2	health	foodImageDisplay	3	166	46	foodImage.108	FOODEEG_Images\0916.jpg	YN	Right	No	1.44965299963951	0	643832	252
1259.544921875	1.44965299963951	health	choicePhaseStart	3	166	46	foodImage.108	FOODEEG_Images\0916.jpg	YN	Right	No	1.44965299963951	0	644888	253
1260.986328125	0	health	response	3	166	46	foodImage.108	FOODEEG_Images\0916.jpg	YN	Right	No	1.44965299963951	0	645626	235
1262.025390625	1	decision	trialStart	3	167	47	foodImage.35	FOODEEG_Images\0350.jpg	NY	Left	No	1.05975880008191	0	646158	251
1263.0625	2	decision	foodImageDisplay	3	167	47	foodImage.35	FOODEEG_Images\0350.jpg	NY	Left	No	1.05975880008191	0	646689	252
1265.125	1.05975880008191	decision	choicePhaseStart	3	167	47	foodImage.35	FOODEEG_Images\0350.jpg	NY	Left	No	1.05975880008191	0	647745	253
1266.177734375	0	decision	response	3	167	47	foodImage.35	FOODEEG_Images\0350.jpg	NY	Left	No	1.05975880008191	0	648284	234
1267.220703125	1	taste	trialStart	3	168	48	foodImage.34	FOODEEG_Images\0339.jpg	NY	Left	No	0.891149999573827	0	648818	251
1268.279296875	2	taste	foodImageDisplay	3	168	48	foodImage.34	FOODEEG_Images\0339.jpg	NY	Left	No	0.891149999573827	0	649360	252
1270.341796875	0.891149999573827	taste	choicePhaseStart	3	168	48	foodImage.34	FOODEEG_Images\0339.jpg	NY	Left	No	0.891149999573827	0	650416	253
1271.224609375	0	taste	response	3	168	48	foodImage.34	FOODEEG_Images\0339.jpg	NY	Left	No	0.891149999573827	0	650868	234
1272.267578125	1	taste	trialStart	3	169	49	foodImage.70	FOODEEG_Images\0705.jpg	NY	Right	Yes	0.70912230014801	0	651402	251
1273.326171875	2	taste	foodImageDisplay	3	169	49	foodImage.70	FOODEEG_Images\0705.jpg	NY	Right	Yes	0.70912230014801	0	651944	252
1275.388671875	0.70912230014801	taste	choicePhaseStart	3	169	49	foodImage.70	FOODEEG_Images\0705.jpg	NY	Right	Yes	0.70912230014801	0	653000	253
1276.087890625	0	taste	response	3	169	49	foodImage.70	FOODEEG_Images\0705.jpg	NY	Right	Yes	0.70912230014801	0	653358	235
1277.130859375	1	taste	trialStart	3	170	50	foodImage.37	FOODEEG_Images\0359.jpg	YN	Left	Yes	0.965708499774337	0	653892	251
1278.171875	2	taste	foodImageDisplay	3	170	50	foodImage.37	FOODEEG_Images\0359.jpg	YN	Left	Yes	0.965708499774337	0	654425	252
1280.234375	0.965708499774337	taste	choicePhaseStart	3	170	50	foodImage.37	FOODEEG_Images\0359.jpg	YN	Left	Yes	0.965708499774337	0	655481	253
1281.193359375	0	taste	response	3	170	50	foodImage.37	FOODEEG_Images\0359.jpg	YN	Left	Yes	0.965708499774337	0	655972	234
1282.234375	1	health	trialStart	3	171	51	foodImage.72	FOODEEG_Images\0714.jpg	NY	Left	No	2.30068509979174	0	656505	251
1283.27734375	2	health	foodImageDisplay	3	171	51	foodImage.72	FOODEEG_Images\0714.jpg	NY	Left	No	2.30068509979174	0	657039	252
1285.33984375	2.30068509979174	health	choicePhaseStart	3	171	51	foodImage.72	FOODEEG_Images\0714.jpg	NY	Left	No	2.30068509979174	0	658095	253
1287.6328125	0	health	response	3	171	51	foodImage.72	FOODEEG_Images\0714.jpg	NY	Left	No	2.30068509979174	0	659269	234
1288.67578125	1	taste	trialStart	3	172	52	foodImage.27	FOODEEG_Images\0263.jpg	YN	Left	Yes	0.948293399997056	0	659803	251
1289.71875	2	taste	foodImageDisplay	3	172	52	foodImage.27	FOODEEG_Images\0263.jpg	YN	Left	Yes	0.948293399997056	0	660337	252
1291.78125	0.948293399997056	taste	choicePhaseStart	3	172	52	foodImage.27	FOODEEG_Images\0263.jpg	YN	Left	Yes	0.948293399997056	0	661393	253
1292.720703125	0	taste	response	3	172	52	foodImage.27	FOODEEG_Images\0263.jpg	YN	Left	Yes	0.948293399997056	0	661874	234
1293.763671875	1	taste	trialStart	3	173	53	foodImage.95	FOODEEG_Images\0903.jpg	NY	Left	No	1.13511840021238	0	662408	251
1294.802734375	2	taste	foodImageDisplay	3	173	53	foodImage.95	FOODEEG_Images\0903.jpg	NY	Left	No	1.13511840021238	0	662940	252
1296.865234375	1.13511840021238	taste	choicePhaseStart	3	173	53	foodImage.95	FOODEEG_Images\0903.jpg	NY	Left	No	1.13511840021238	0	663996	253
1297.9921875	0	taste	response	3	173	53	foodImage.95	FOODEEG_Images\0903.jpg	NY	Left	No	1.13511840021238	0	664573	234
1299.03515625	1	taste	trialStart	3	174	54	foodImage.102	FOODEEG_Images\0910.jpg	NY	Left	No	1.29821079969406	0	665107	251
1300.072265625	2	taste	foodImageDisplay	3	174	54	foodImage.102	FOODEEG_Images\0910.jpg	NY	Left	No	1.29821079969406	0	665638	252
1302.134765625	1.29821079969406	taste	choicePhaseStart	3	174	54	foodImage.102	FOODEEG_Images\0910.jpg	NY	Left	No	1.29821079969406	0	666694	253
1303.423828125	0	taste	response	3	174	54	foodImage.102	FOODEEG_Images\0910.jpg	NY	Left	No	1.29821079969406	0	667354	234
1304.466796875	1	decision	trialStart	3	175	55	foodImage.48	FOODEEG_Images\0494.jpg	NY	Left	No	1.91797030018643	0	667888	251
1305.509765625	2	decision	foodImageDisplay	3	175	55	foodImage.48	FOODEEG_Images\0494.jpg	NY	Left	No	1.91797030018643	0	668422	252
1307.572265625	1.91797030018643	decision	choicePhaseStart	3	175	55	foodImage.48	FOODEEG_Images\0494.jpg	NY	Left	No	1.91797030018643	0	669478	253
1309.48046875	0	decision	response	3	175	55	foodImage.48	FOODEEG_Images\0494.jpg	NY	Left	No	1.91797030018643	0	670455	234
1310.5234375	1	decision	trialStart	3	176	56	foodImage.98	FOODEEG_Images\0906.jpg	NY	Left	No	0.671294800005853	0	670989	251
1311.5625	2	decision	foodImageDisplay	3	176	56	foodImage.98	FOODEEG_Images\0906.jpg	NY	Left	No	0.671294800005853	0	671521	252
1313.625	0.671294800005853	decision	choicePhaseStart	3	176	56	foodImage.98	FOODEEG_Images\0906.jpg	NY	Left	No	0.671294800005853	0	672577	253
1314.287109375	0	decision	response	3	176	56	foodImage.98	FOODEEG_Images\0906.jpg	NY	Left	No	0.671294800005853	0	672916	234
1315.328125	1	decision	trialStart	3	177	57	foodImage.45	FOODEEG_Images\0478.jpg	NY	Left	No	1.22891069995239	0	673449	251
1316.373046875	2	decision	foodImageDisplay	3	177	57	foodImage.45	FOODEEG_Images\0478.jpg	NY	Left	No	1.22891069995239	0	673984	252
1318.435546875	1.22891069995239	decision	choicePhaseStart	3	177	57	foodImage.45	FOODEEG_Images\0478.jpg	NY	Left	No	1.22891069995239	0	675040	253
1319.654296875	0	decision	response	3	177	57	foodImage.45	FOODEEG_Images\0478.jpg	NY	Left	No	1.22891069995239	0	675664	234
1320.697265625	1	health	trialStart	3	178	58	foodImage.106	FOODEEG_Images\0914.jpg	YN	Right	No	0.99278839956969	0	676198	251
1321.736328125	2	health	foodImageDisplay	3	178	58	foodImage.106	FOODEEG_Images\0914.jpg	YN	Right	No	0.99278839956969	0	676730	252
1323.798828125	0.99278839956969	health	choicePhaseStart	3	178	58	foodImage.106	FOODEEG_Images\0914.jpg	YN	Right	No	0.99278839956969	0	677786	253
1324.783203125	0	health	response	3	178	58	foodImage.106	FOODEEG_Images\0914.jpg	YN	Right	No	0.99278839956969	0	678290	235
1325.826171875	1	taste	trialStart	3	179	59	foodImage.36	FOODEEG_Images\0352.jpg	NY	Right	Yes	3.24311339994892	0	678824	251
1326.884765625	2	taste	foodImageDisplay	3	179	59	foodImage.36	FOODEEG_Images\0352.jpg	NY	Right	Yes	3.24311339994892	0	679366	252
1328.94921875	3.24311339994892	taste	choicePhaseStart	3	179	59	foodImage.36	FOODEEG_Images\0352.jpg	NY	Right	Yes	3.24311339994892	0	680423	253
1332.18359375	0	taste	response	3	179	59	foodImage.36	FOODEEG_Images\0352.jpg	NY	Right	Yes	3.24311339994892	0	682079	235
1333.2265625	1	health	trialStart	3	180	60	foodImage.26	FOODEEG_Images\0262.jpg	NY	Right	Yes	1.14964359998703	0	682613	251
1334.267578125	2	health	foodImageDisplay	3	180	60	foodImage.26	FOODEEG_Images\0262.jpg	NY	Right	Yes	1.14964359998703	0	683146	252
1336.330078125	1.14964359998703	health	choicePhaseStart	3	180	60	foodImage.26	FOODEEG_Images\0262.jpg	NY	Right	Yes	1.14964359998703	0	684202	253
1337.470703125	0	health	response	3	180	60	foodImage.26	FOODEEG_Images\0262.jpg	NY	Right	Yes	1.14964359998703	0	684786	235
1339.513671875	17.01953125	n/a	blockEnd	n/a	n/a	n/a	n/a	n/a	n/a	n/a	n/a	n/a	n/a	685832	254
1356.533203125	2	n/a	blockStart	4	n/a	n/a	n/a	n/a	n/a	n/a	n/a	n/a	n/a	694546	250
1358.564453125	1	decision	trialStart	4	181	1	foodImage.67	FOODEEG_Images\0679.jpg	YN	Left	Yes	0.683075900189579	0	695586	251
1359.62109375	2	decision	foodImageDisplay	4	181	1	foodImage.67	FOODEEG_Images\0679.jpg	YN	Left	Yes	0.683075900189579	0	696127	252
1361.68359375	0.683075900189579	decision	choicePhaseStart	4	181	1	foodImage.67	FOODEEG_Images\0679.jpg	YN	Left	Yes	0.683075900189579	0	697183	253
1362.357421875	0	decision	response	4	181	1	foodImage.67	FOODEEG_Images\0679.jpg	YN	Left	Yes	0.683075900189579	0	697528	234
1363.40234375	1	health	trialStart	4	182	2	foodImage.80	FOODEEG_Images\0796.jpg	NY	Right	Yes	0.679526700172573	0	698063	251
1364.45703125	2	health	foodImageDisplay	4	182	2	foodImage.80	FOODEEG_Images\0796.jpg	NY	Right	Yes	0.679526700172573	0	698603	252
1366.51953125	0.679526700172573	health	choicePhaseStart	4	182	2	foodImage.80	FOODEEG_Images\0796.jpg	NY	Right	Yes	0.679526700172573	0	699659	253
1367.189453125	0	health	response	4	182	2	foodImage.80	FOODEEG_Images\0796.jpg	NY	Right	Yes	0.679526700172573	0	700002	235
1368.232421875	1	decision	trialStart	4	183	3	foodImage.61	FOODEEG_Images\0640.jpg	NY	Right	Yes	2.36177999991924	0	700536	251
1369.275390625	2	decision	foodImageDisplay	4	183	3	foodImage.61	FOODEEG_Images\0640.jpg	NY	Right	Yes	2.36177999991924	0	701070	252
1371.337890625	2.36177999991924	decision	choicePhaseStart	4	183	3	foodImage.61	FOODEEG_Images\0640.jpg	NY	Right	Yes	2.36177999991924	0	702126	253
1373.693359375	0	decision	response	4	183	3	foodImage.61	FOODEEG_Images\0640.jpg	NY	Right	Yes	2.36177999991924	0	703332	235
1374.740234375	1	taste	trialStart	4	184	4	foodImage.115	FOODEEG_Images\0923.jpg	YN	Right	No	0.813987199682742	0	703868	251
1375.77734375	2	taste	foodImageDisplay	4	184	4	foodImage.115	FOODEEG_Images\0923.jpg	YN	Right	No	0.813987199682742	0	704399	252
1377.83984375	0.813987199682742	taste	choicePhaseStart	4	184	4	foodImage.115	FOODEEG_Images\0923.jpg	YN	Right	No	0.813987199682742	0	705455	253
1378.64453125	0	taste	response	4	184	4	foodImage.115	FOODEEG_Images\0923.jpg	YN	Right	No	0.813987199682742	0	705867	235
1379.68359375	1	health	trialStart	4	185	5	foodImage.92	FOODEEG_Images\0900.jpg	YN	Right	No	0.708756900392473	0	706399	251
1380.720703125	2	health	foodImageDisplay	4	185	5	foodImage.92	FOODEEG_Images\0900.jpg	YN	Right	No	0.708756900392473	0	706930	252
1382.78515625	0.708756900392473	health	choicePhaseStart	4	185	5	foodImage.92	FOODEEG_Images\0900.jpg	YN	Right	No	0.708756900392473	0	707987	253
1383.484375	0	health	response	4	185	5	foodImage.92	FOODEEG_Images\0900.jpg	YN	Right	No	0.708756900392473	0	708345	235
1384.52734375	1	health	trialStart	4	186	6	foodImage.34	FOODEEG_Images\0339.jpg	NY	Left	No	1.31357719982043	0	708879	251
1385.58203125	2	health	foodImageDisplay	4	186	6	foodImage.34	FOODEEG_Images\0339.jpg	NY	Left	No	1.31357719982043	0	709419	252
1387.64453125	1.31357719982043	health	choicePhaseStart	4	186	6	foodImage.34	FOODEEG_Images\0339.jpg	NY	Left	No	1.31357719982043	0	710475	253
1388.94921875	0	health	response	4	186	6	foodImage.34	FOODEEG_Images\0339.jpg	NY	Left	No	1.31357719982043	0	711143	234
1389.9921875	1	taste	trialStart	4	187	7	foodImage.48	FOODEEG_Images\0494.jpg	YN	Left	Yes	1.45172689994797	0	711677	251
1391.03515625	2	taste	foodImageDisplay	4	187	7	foodImage.48	FOODEEG_Images\0494.jpg	YN	Left	Yes	1.45172689994797	0	712211	252
1393.09765625	1.45172689994797	taste	choicePhaseStart	4	187	7	foodImage.48	FOODEEG_Images\0494.jpg	YN	Left	Yes	1.45172689994797	0	713267	253
1394.541015625	0	taste	response	4	187	7	foodImage.48	FOODEEG_Images\0494.jpg	YN	Left	Yes	1.45172689994797	0	714006	234
1395.58203125	1	taste	trialStart	4	188	8	foodImage.99	FOODEEG_Images\0907.jpg	YN	Right	No	2.14700099965557	0	714539	251
1396.62109375	2	taste	foodImageDisplay	4	188	8	foodImage.99	FOODEEG_Images\0907.jpg	YN	Right	No	2.14700099965557	0	715071	252
1398.68359375	2.14700099965557	taste	choicePhaseStart	4	188	8	foodImage.99	FOODEEG_Images\0907.jpg	YN	Right	No	2.14700099965557	0	716127	253
1400.8203125	0	taste	response	4	188	8	foodImage.99	FOODEEG_Images\0907.jpg	YN	Right	No	2.14700099965557	0	717221	235
1401.865234375	1	decision	trialStart	4	189	9	foodImage.56	FOODEEG_Images\0586.jpg	NY	Right	Yes	1.14089130004868	0	717756	251
1402.90625	2	decision	foodImageDisplay	4	189	9	foodImage.56	FOODEEG_Images\0586.jpg	NY	Right	Yes	1.14089130004868	0	718289	252
1404.96875	1.14089130004868	decision	choicePhaseStart	4	189	9	foodImage.56	FOODEEG_Images\0586.jpg	NY	Right	Yes	1.14089130004868	0	719345	253
1406.099609375	0	decision	response	4	189	9	foodImage.56	FOODEEG_Images\0586.jpg	NY	Right	Yes	1.14089130004868	0	719924	235
1407.142578125	1	taste	trialStart	4	190	10	foodImage.8	FOODEEG_Images\0136.jpg	YN	Right	No	0.844866199884564	0	720458	251
1408.185546875	2	taste	foodImageDisplay	4	190	10	foodImage.8	FOODEEG_Images\0136.jpg	YN	Right	No	0.844866199884564	0	720992	252
1410.248046875	0.844866199884564	taste	choicePhaseStart	4	190	10	foodImage.8	FOODEEG_Images\0136.jpg	YN	Right	No	0.844866199884564	0	722048	253
1411.083984375	0	taste	response	4	190	10	foodImage.8	FOODEEG_Images\0136.jpg	YN	Right	No	0.844866199884564	0	722476	235
1412.126953125	1	taste	trialStart	4	191	11	foodImage.25	FOODEEG_Images\0261.jpg	NY	Right	Yes	1.32353729987517	0	723010	251
1413.169921875	2	taste	foodImageDisplay	4	191	11	foodImage.25	FOODEEG_Images\0261.jpg	NY	Right	Yes	1.32353729987517	0	723544	252
1415.232421875	1.32353729987517	taste	choicePhaseStart	4	191	11	foodImage.25	FOODEEG_Images\0261.jpg	NY	Right	Yes	1.32353729987517	0	724600	253
1416.546875	0	taste	response	4	191	11	foodImage.25	FOODEEG_Images\0261.jpg	NY	Right	Yes	1.32353729987517	0	725273	235
1417.591796875	1	health	trialStart	4	192	12	foodImage.43	FOODEEG_Images\0445.jpg	YN	Left	Yes	0.857932100072503	0	725808	251
1418.650390625	2	health	foodImageDisplay	4	192	12	foodImage.43	FOODEEG_Images\0445.jpg	YN	Left	Yes	0.857932100072503	0	726350	252
1420.71484375	0.857932100072503	health	choicePhaseStart	4	192	12	foodImage.43	FOODEEG_Images\0445.jpg	YN	Left	Yes	0.857932100072503	0	727407	253
1421.5625	0	health	response	4	192	12	foodImage.43	FOODEEG_Images\0445.jpg	YN	Left	Yes	0.857932100072503	0	727841	234
1422.607421875	1	taste	trialStart	4	193	13	foodImage.87	FOODEEG_Images\0873.jpg	NY	Right	Yes	1.77153719961643	0	728376	251
1423.666015625	2	taste	foodImageDisplay	4	193	13	foodImage.87	FOODEEG_Images\0873.jpg	NY	Right	Yes	1.77153719961643	0	728918	252
