onset	duration	trial_type	event_type	block	trial_total	trial_in_block	food_image_code	food_image_path	button_position	resp_position	resp_choice	choice_rt	resp_too_slow	sample	trigger
291.435546875	2	n/a	blockStart	1	n/a	n/a	n/a	n/a	n/a	n/a	n/a	n/a	n/a	149216	250
293.47265625	1	health	trialStart	1	1	1	foodImage.41	FOODEEG_Images\0409.jpg	NY	Right	Yes	0.701837599975988	0	150259	251
294.5234375	2	health	foodImageDisplay	1	1	1	foodImage.41	FOODEEG_Images\0409.jpg	NY	Right	Yes	0.701837599975988	0	150797	252
296.587890625	0.701837599975988	health	choicePhaseStart	1	1	1	foodImage.41	FOODEEG_Images\0409.jpg	NY	Right	Yes	0.701837599975988	0	151854	253
297.283203125	0	health	response	1	1	1	foodImage.41	FOODEEG_Images\0409.jpg	NY	Right	Yes	0.701837599975988	0	152210	235
298.390625	1	taste	trialStart	1	2	2	foodImage.114	FOODEEG_Images\0922.jpg	YN	Right	No	0.992874399991706	0	152777	251
299.435546875	2	taste	foodImageDisplay	1	2	2	foodImage.114	FOODEEG_Images\0922.jpg	YN	Right	No	0.992874399991706	0	153312	252
301.505859375	0.992874399991706	taste	choicePhaseStart	1	2	2	foodImage.114	FOODEEG_Images\0922.jpg	YN	Right	No	0.992874399991706	0	154372	253
302.490234375	0	taste	response	1	2	2	foodImage.114	FOODEEG_Images\0922.jpg	YN	Right	No	0.992874399991706	0	154876	235
303.54296875	1	taste	trialStart	1	3	3	foodImage.89	FOODEEG_Images\0881.jpg	YN	Right	No	1.73249059985392	0	155415	251
304.62109375	2	taste	foodImageDisplay	1	3	3	foodImage.89	FOODEEG_Images\0881.jpg	YN	Right	No	1.73249059985392	0	155967	252
306.685546875	1.73249059985392	taste	choicePhaseStart	1	3	3	foodImage.89	FOODEEG_Images\0881.jpg	YN	Right	No	1.73249059985392	0	157024	253
308.41015625	0	taste	response	1	3	3	foodImage.89	FOODEEG_Images\0881.jpg	YN	Right	No	1.73249059985392	0	157907	235
309.451171875	1	decision	trialStart	1	4	4	foodImage.66	FOODEEG_Images\0676.jpg	NY	Left	No	1.28769050003029	0	158440	251
310.494140625	2	decision	foodImageDisplay	1	4	4	foodImage.66	FOODEEG_Images\0676.jpg	NY	Left	No	1.28769050003029	0	158974	252
312.55859375	1.28769050003029	decision	choicePhaseStart	1	4	4	foodImage.66	FOODEEG_Images\0676.jpg	NY	Left	No	1.28769050003029	0	160031	253
313.841796875	0	decision	response	1	4	4	foodImage.66	FOODEEG_Images\0676.jpg	NY	Left	No	1.28769050003029	0	160688	234
314.888671875	1	health	trialStart	1	5	5	foodImage.26	FOODEEG_Images\0262.jpg	YN	Left	Yes	0.597770499996841	0	161224	251
315.9453125	2	health	foodImageDisplay	1	5	5	foodImage.26	FOODEEG_Images\0262.jpg	YN	Left	Yes	0.597770499996841	0	161765	252
318.01171875	0.597770499996841	health	choicePhaseStart	1	5	5	foodImage.26	FOODEEG_Images\0262.jpg	YN	Left	Yes	0.597770499996841	0	162823	253
318.6015625	0	health	response	1	5	5	foodImage.26	FOODEEG_Images\0262.jpg	YN	Left	Yes	0.597770499996841	0	163125	234
319.654296875	1	taste	trialStart	1	6	6	foodImage.111	FOODEEG_Images\0919.jpg	NY	Left	No	0.601972199976444	0	163664	251
320.708984375	2	taste	foodImageDisplay	1	6	6	foodImage.111	FOODEEG_Images\0919.jpg	NY	Left	No	0.601972199976444	0	164204	252
322.7734375	0.601972199976444	taste	choicePhaseStart	1	6	6	foodImage.111	FOODEEG_Images\0919.jpg	NY	Left	No	0.601972199976444	0	165261	253
323.369140625	0	taste	response	1	6	6	foodImage.111	FOODEEG_Images\0919.jpg	NY	Left	No	0.601972199976444	0	165566	234
324.412109375	1	decision	trialStart	1	7	7	foodImage.100	FOODEEG_Images\0908.jpg	YN	Right	No	0.671592799946666	0	166100	251
325.466796875	2	decision	foodImageDisplay	1	7	7	foodImage.100	FOODEEG_Images\0908.jpg	YN	Right	No	0.671592799946666	0	166640	252
327.529296875	0.671592799946666	decision	choicePhaseStart	1	7	7	foodImage.100	FOODEEG_Images\0908.jpg	YN	Right	No	0.671592799946666	0	167696	253
328.193359375	0	decision	response	1	7	7	foodImage.100	FOODEEG_Images\0908.jpg	YN	Right	No	0.671592799946666	0	168036	235
329.23828125	1	taste	trialStart	1	8	8	foodImage.76	FOODEEG_Images\0766.jpg	YN	Left	Yes	0.667692699935287	0	168571	251
330.29296875	2	taste	foodImageDisplay	1	8	8	foodImage.76	FOODEEG_Images\0766.jpg	YN	Left	Yes	0.667692699935287	0	169111	252
332.35546875	0.667692699935287	taste	choicePhaseStart	1	8	8	foodImage.76	FOODEEG_Images\0766.jpg	YN	Left	Yes	0.667692699935287	0	170167	253
333.015625	0	taste	response	1	8	8	foodImage.76	FOODEEG_Images\0766.jpg	YN	Left	Yes	0.667692699935287	0	170505	234
334.060546875	1	health	trialStart	1	9	9	foodImage.91	FOODEEG_Images\0896.jpg	NY	Left	No	0.887933700112626	0	171040	251
335.13671875	2	health	foodImageDisplay	1	9	9	foodImage.91	FOODEEG_Images\0896.jpg	NY	Left	No	0.887933700112626	0	171591	252
337.201171875	0.887933700112626	health	choicePhaseStart	1	9	9	foodImage.91	FOODEEG_Images\0896.jpg	NY	Left	No	0.887933700112626	0	172648	253
338.080078125	0	health	response	1	9	9	foodImage.91	FOODEEG_Images\0896.jpg	NY	Left	No	0.887933700112626	0	173098	234
339.12109375	1	health	trialStart	1	10	10	foodImage.102	FOODEEG_Images\0910.jpg	NY	Left	No	3.48743179999292	0	173631	251
340.162109375	2	health	foodImageDisplay	1	10	10	foodImage.102	FOODEEG_Images\0910.jpg	NY	Left	No	3.48743179999292	0	174164	252
342.232421875	3.48743179999292	health	choicePhaseStart	1	10	10	foodImage.102	FOODEEG_Images\0910.jpg	NY	Left	No	3.48743179999292	0	175224	253
345.712890625	0	health	response	1	10	10	foodImage.102	FOODEEG_Images\0910.jpg	NY	Left	No	3.48743179999292	0	177006	234
346.75390625	1	taste	trialStart	1	11	11	foodImage.39	FOODEEG_Images\0367.jpg	NY	Right	Yes	1.96328430017456	0	177539	251
347.794921875	2	taste	foodImageDisplay	1	11	11	foodImage.39	FOODEEG_Images\0367.jpg	NY	Right	Yes	1.96328430017456	0	178072	252
349.859375	1.96328430017456	taste	choicePhaseStart	1	11	11	foodImage.39	FOODEEG_Images\0367.jpg	NY	Right	Yes	1.96328430017456	0	179129	253
351.81640625	0	taste	response	1	11	11	foodImage.39	FOODEEG_Images\0367.jpg	NY	Right	Yes	1.96328430017456	0	180131	235
352.857421875	1	decision	trialStart	1	12	12	foodImage.87	FOODEEG_Images\0873.jpg	YN	Right	No	0.622477299999446	0	180664	251
353.9140625	2	decision	foodImageDisplay	1	12	12	foodImage.87	FOODEEG_Images\0873.jpg	YN	Right	No	0.622477299999446	0	181205	252
355.978515625	0.622477299999446	decision	choicePhaseStart	1	12	12	foodImage.87	FOODEEG_Images\0873.jpg	YN	Right	No	0.622477299999446	0	182262	253
356.591796875	0	decision	response	1	12	12	foodImage.87	FOODEEG_Images\0873.jpg	YN	Right	No	0.622477299999446	0	182576	235
357.630859375	1	taste	trialStart	1	13	13	foodImage.54	FOODEEG_Images\0560.jpg	YN	Left	Yes	0.595912600168958	0	183108	251
358.693359375	2	taste	foodImageDisplay	1	13	13	foodImage.54	FOODEEG_Images\0560.jpg	YN	Left	Yes	0.595912600168958	0	183652	252
360.755859375	0.595912600168958	taste	choicePhaseStart	1	13	13	foodImage.54	FOODEEG_Images\0560.jpg	YN	Left	Yes	0.595912600168958	0	184708	253
361.34375	0	taste	response	1	13	13	foodImage.54	FOODEEG_Images\0560.jpg	YN	Left	Yes	0.595912600168958	0	185009	234
362.388671875	1	decision	trialStart	1	14	14	foodImage.13	FOODEEG_Images\0183.jpg	YN	Left	Yes	0.601250299951062	0	185544	251
363.4296875	2	decision	foodImageDisplay	1	14	14	foodImage.13	FOODEEG_Images\0183.jpg	YN	Left	Yes	0.601250299951062	0	186077	252
365.494140625	0.601250299951062	decision	choicePhaseStart	1	14	14	foodImage.13	FOODEEG_Images\0183.jpg	YN	Left	Yes	0.601250299951062	0	187134	253
366.087890625	0	decision	response	1	14	14	foodImage.13	FOODEEG_Images\0183.jpg	YN	Left	Yes	0.601250299951062	0	187438	234
367.12890625	1	taste	trialStart	1	15	15	foodImage.27	FOODEEG_Images\0263.jpg	NY	Right	Yes	0.574890800053254	0	187971	251
368.171875	2	taste	foodImageDisplay	1	15	15	foodImage.27	FOODEEG_Images\0263.jpg	NY	Right	Yes	0.574890800053254	0	188505	252
370.234375	0.574890800053254	taste	choicePhaseStart	1	15	15	foodImage.27	FOODEEG_Images\0263.jpg	NY	Right	Yes	0.574890800053254	0	189561	253
370.798828125	0	taste	response	1	15	15	foodImage.27	FOODEEG_Images\0263.jpg	NY	Right	Yes	0.574890800053254	0	189850	235
371.841796875	1	decision	trialStart	1	16	16	foodImage.93	FOODEEG_Images\0901.jpg	YN	Right	No	0.64464890002273	0	190384	251
372.880859375	2	decision	foodImageDisplay	1	16	16	foodImage.93	FOODEEG_Images\0901.jpg	YN	Right	No	0.64464890002273	0	190916	252
374.947265625	0.64464890002273	decision	choicePhaseStart	1	16	16	foodImage.93	FOODEEG_Images\0901.jpg	YN	Right	No	0.64464890002273	0	191974	253
375.58203125	0	decision	response	1	16	16	foodImage.93	FOODEEG_Images\0901.jpg	YN	Right	No	0.64464890002273	0	192299	235
376.625	1	decision	trialStart	1	17	17	foodImage.4	FOODEEG_Images\0065.jpg	NY	Right	Yes	0.769805999938399	0	192833	251
377.685546875	2	decision	foodImageDisplay	1	17	17	foodImage.4	FOODEEG_Images\0065.jpg	NY	Right	Yes	0.769805999938399	0	193376	252
379.75	0.769805999938399	decision	choicePhaseStart	1	17	17	foodImage.4	FOODEEG_Images\0065.jpg	NY	Right	Yes	0.769805999938399	0	194433	253
380.509765625	0	decision	response	1	17	17	foodImage.4	FOODEEG_Images\0065.jpg	NY	Right	Yes	0.769805999938399	0	194822	235
381.552734375	1	taste	trialStart	1	18	18	foodImage.106	FOODEEG_Images\0914.jpg	NY	Left	No	0.687540000071749	0	195356	251
382.607421875	2	taste	foodImageDisplay	1	18	18	foodImage.106	FOODEEG_Images\0914.jpg	NY	Left	No	0.687540000071749	0	195896	252
384.671875	0.687540000071749	taste	choicePhaseStart	1	18	18	foodImage.106	FOODEEG_Images\0914.jpg	NY	Left	No	0.687540000071749	0	196953	253
385.349609375	0	taste	response	1	18	18	foodImage.106	FOODEEG_Images\0914.jpg	NY	Left	No	0.687540000071749	0	197300	234
386.39453125	1	decision	trialStart	1	19	19	foodImage.36	FOODEEG_Images\0352.jpg	NY	Right	Yes	0.744896000018343	0	197835	251
387.470703125	2	decision	foodImageDisplay	1	19	19	foodImage.36	FOODEEG_Images\0352.jpg	NY	Right	Yes	0.744896000018343	0	198386	252
389.533203125	0.744896000018343	decision	choicePhaseStart	1	19	19	foodImage.36	FOODEEG_Images\0352.jpg	NY	Right	Yes	0.744896000018343	0	199442	253
390.26953125	0	decision	response	1	19	19	foodImage.36	FOODEEG_Images\0352.jpg	NY	Right	Yes	0.744896000018343	0	199819	235
391.3125	1	taste	trialStart	1	20	20	foodImage.96	FOODEEG_Images\0904.jpg	NY	Left	No	0.710849100025371	0	200353	251
392.369140625	2	taste	foodImageDisplay	1	20	20	foodImage.96	FOODEEG_Images\0904.jpg	NY	Left	No	0.710849100025371	0	200894	252
394.431640625	0.710849100025371	taste	choicePhaseStart	1	20	20	foodImage.96	FOODEEG_Images\0904.jpg	NY	Left	No	0.710849100025371	0	201950	253
395.134765625	0	taste	response	1	20	20	foodImage.96	FOODEEG_Images\0904.jpg	NY	Left	No	0.710849100025371	0	202310	234
396.17578125	1	taste	trialStart	1	21	21	foodImage.16	FOODEEG_Images\0196.jpg	NY	Left	No	0.614913400029764	0	202843	251
397.23828125	2	taste	foodImageDisplay	1	21	21	foodImage.16	FOODEEG_Images\0196.jpg	NY	Left	No	0.614913400029764	0	203387	252
399.30078125	0.614913400029764	taste	choicePhaseStart	1	21	21	foodImage.16	FOODEEG_Images\0196.jpg	NY	Left	No	0.614913400029764	0	204443	253
399.91015625	0	taste	response	1	21	21	foodImage.16	FOODEEG_Images\0196.jpg	NY	Left	No	0.614913400029764	0	204755	234
400.958984375	1	taste	trialStart	1	22	22	foodImage.36	FOODEEG_Images\0352.jpg	NY	Right	Yes	0.858041499974206	0	205292	251
402.01171875	2	taste	foodImageDisplay	1	22	22	foodImage.36	FOODEEG_Images\0352.jpg	NY	Right	Yes	0.858041499974206	0	205831	252
404.076171875	0.858041499974206	taste	choicePhaseStart	1	22	22	foodImage.36	FOODEEG_Images\0352.jpg	NY	Right	Yes	0.858041499974206	0	206888	253
404.92578125	0	taste	response	1	22	22	foodImage.36	FOODEEG_Images\0352.jpg	NY	Right	Yes	0.858041499974206	0	207323	235
405.96875	1	health	trialStart	1	23	23	foodImage.5	FOODEEG_Images\0107.jpg	NY	Left	No	0.957262099953368	0	207857	251
407.025390625	2	health	foodImageDisplay	1	23	23	foodImage.5	FOODEEG_Images\0107.jpg	NY	Left	No	0.957262099953368	0	208398	252
409.087890625	0.957262099953368	health	choicePhaseStart	1	23	23	foodImage.5	FOODEEG_Images\0107.jpg	NY	Left	No	0.957262099953368	0	209454	253
410.037109375	0	health	response	1	23	23	foodImage.5	FOODEEG_Images\0107.jpg	NY	Left	No	0.957262099953368	0	209940	234
411.078125	1	health	trialStart	1	24	24	foodImage.63	FOODEEG_Images\0645.jpg	YN	Right	No	0.855309800012037	0	210473	251
412.119140625	2	health	foodImageDisplay	1	24	24	foodImage.63	FOODEEG_Images\0645.jpg	YN	Right	No	0.855309800012037	0	211006	252
414.1875	0.855309800012037	health	choicePhaseStart	1	24	24	foodImage.63	FOODEEG_Images\0645.jpg	YN	Right	No	0.855309800012037	0	212065	253
415.037109375	0	health	response	1	24	24	foodImage.63	FOODEEG_Images\0645.jpg	YN	Right	No	0.855309800012037	0	212500	235
416.078125	1	decision	trialStart	1	25	25	foodImage.50	FOODEEG_Images\0529.jpg	NY	Right	Yes	1.83791000000201	0	213033	251
417.134765625	2	decision	foodImageDisplay	1	25	25	foodImage.50	FOODEEG_Images\0529.jpg	NY	Right	Yes	1.83791000000201	0	213574	252
419.19921875	1.83791000000201	decision	choicePhaseStart	1	25	25	foodImage.50	FOODEEG_Images\0529.jpg	NY	Right	Yes	1.83791000000201	0	214631	253
421.029296875	0	decision	response	1	25	25	foodImage.50	FOODEEG_Images\0529.jpg	NY	Right	Yes	1.83791000000201	0	215568	235
422.068359375	1	health	trialStart	1	26	26	foodImage.99	FOODEEG_Images\0907.jpg	YN	Right	No	0.598386199912056	0	216100	251
423.10546875	2	health	foodImageDisplay	1	26	26	foodImage.99	FOODEEG_Images\0907.jpg	YN	Right	No	0.598386199912056	0	216631	252
425.16796875	0.598386199912056	health	choicePhaseStart	1	26	26	foodImage.99	FOODEEG_Images\0907.jpg	YN	Right	No	0.598386199912056	0	217687	253
425.7578125	0	health	response	1	26	26	foodImage.99	FOODEEG_Images\0907.jpg	YN	Right	No	0.598386199912056	0	217989	235
426.80078125	1	decision	trialStart	1	27	27	foodImage.20	FOODEEG_Images\0226.jpg	YN	Right	No	0.760410000104457	0	218523	251
427.84375	2	decision	foodImageDisplay	1	27	27	foodImage.20	FOODEEG_Images\0226.jpg	YN	Right	No	0.760410000104457	0	219057	252
429.90625	0.760410000104457	decision	choicePhaseStart	1	27	27	foodImage.20	FOODEEG_Images\0226.jpg	YN	Right	No	0.760410000104457	0	220113	253
430.66015625	0	decision	response	1	27	27	foodImage.20	FOODEEG_Images\0226.jpg	YN	Right	No	0.760410000104457	0	220499	235
431.705078125	1	health	trialStart	1	28	28	foodImage.58	FOODEEG_Images\0605.jpg	NY	Right	Yes	1.33611789997667	0	221034	251
432.765625	2	health	foodImageDisplay	1	28	28	foodImage.58	FOODEEG_Images\0605.jpg	NY	Right	Yes	1.33611789997667	0	221577	252
434.830078125	1.33611789997667	health	choicePhaseStart	1	28	28	foodImage.58	FOODEEG_Images\0605.jpg	NY	Right	Yes	1.33611789997667	0	222634	253
436.15625	0	health	response	1	28	28	foodImage.58	FOODEEG_Images\0605.jpg	NY	Right	Yes	1.33611789997667	0	223313	235
437.19921875	1	taste	trialStart	1	29	29	foodImage.21	FOODEEG_Images\0234.jpg	NY	Right	Yes	0.690238999901339	0	223847	251
438.25390625	2	taste	foodImageDisplay	1	29	29	foodImage.21	FOODEEG_Images\0234.jpg	NY	Right	Yes	0.690238999901339	0	224387	252
440.31640625	0.690238999901339	taste	choicePhaseStart	1	29	29	foodImage.21	FOODEEG_Images\0234.jpg	NY	Right	Yes	0.690238999901339	0	225443	253
440.99609375	0	taste	response	1	29	29	foodImage.21	FOODEEG_Images\0234.jpg	NY	Right	Yes	0.690238999901339	0	225791	235
442.0390625	1	health	trialStart	1	30	30	foodImage.13	FOODEEG_Images\0183.jpg	NY	Left	No	1.94439449999481	0	226325	251
443.08203125	2	health	foodImageDisplay	1	30	30	foodImage.13	FOODEEG_Images\0183.jpg	NY	Left	No	1.94439449999481	0	226859	252
445.14453125	1.94439449999481	health	choicePhaseStart	1	30	30	foodImage.13	FOODEEG_Images\0183.jpg	NY	Left	No	1.94439449999481	0	227915	253
447.083984375	0	health	response	1	30	30	foodImage.13	FOODEEG_Images\0183.jpg	NY	Left	No	1.94439449999481	0	228908	234
448.125	1	taste	trialStart	1	31	31	foodImage.17	FOODEEG_Images\0199.jpg	YN	Left	Yes	0.713180199963972	0	229441	251
449.189453125	2	taste	foodImageDisplay	1	31	31	foodImage.17	FOODEEG_Images\0199.jpg	YN	Left	Yes	0.713180199963972	0	229986	252
451.251953125	0.713180199963972	taste	choicePhaseStart	1	31	31	foodImage.17	FOODEEG_Images\0199.jpg	YN	Left	Yes	0.713180199963972	0	231042	253
451.955078125	0	taste	response	1	31	31	foodImage.17	FOODEEG_Images\0199.jpg	YN	Left	Yes	0.713180199963972	0	231402	234
452.998046875	1	decision	trialStart	1	32	32	foodImage.5	FOODEEG_Images\0107.jpg	YN	Left	Yes	1.27011930011213	0	231936	251
454.0546875	2	decision	foodImageDisplay	1	32	32	foodImage.5	FOODEEG_Images\0107.jpg	YN	Left	Yes	1.27011930011213	0	232477	252
456.119140625	1.27011930011213	decision	choicePhaseStart	1	32	32	foodImage.5	FOODEEG_Images\0107.jpg	YN	Left	Yes	1.27011930011213	0	233534	253
457.37890625	0	decision	response	1	32	32	foodImage.5	FOODEEG_Images\0107.jpg	YN	Left	Yes	1.27011930011213	0	234179	234
458.41796875	1	health	trialStart	1	33	33	foodImage.120	FOODEEG_Images\0928.jpg	NY	Right	Yes	1.08337019989267	0	234711	251
459.45703125	2	health	foodImageDisplay	1	33	33	foodImage.120	FOODEEG_Images\0928.jpg	NY	Right	Yes	1.08337019989267	0	235243	252
461.521484375	1.08337019989267	health	choicePhaseStart	1	33	33	foodImage.120	FOODEEG_Images\0928.jpg	NY	Right	Yes	1.08337019989267	0	236300	253
462.595703125	0	health	response	1	33	33	foodImage.120	FOODEEG_Images\0928.jpg	NY	Right	Yes	1.08337019989267	0	236850	235
463.63671875	1	decision	trialStart	1	34	34	foodImage.52	FOODEEG_Images\0539.jpg	YN	Left	Yes	0.533980799838901	0	237383	251
464.70703125	2	decision	foodImageDisplay	1	34	34	foodImage.52	FOODEEG_Images\0539.jpg	YN	Left	Yes	0.533980799838901	0	237931	252
466.771484375	0.533980799838901	decision	choicePhaseStart	1	34	34	foodImage.52	FOODEEG_Images\0539.jpg	YN	Left	Yes	0.533980799838901	0	238988	253
467.298828125	0	decision	response	1	34	34	foodImage.52	FOODEEG_Images\0539.jpg	YN	Left	Yes	0.533980799838901	0	239258	234
468.337890625	1	taste	trialStart	1	35	35	foodImage.117	FOODEEG_Images\0925.jpg	NY	Left	No	0.637781199999154	0	239790	251
469.376953125	2	taste	foodImageDisplay	1	35	35	foodImage.117	FOODEEG_Images\0925.jpg	NY	Left	No	0.637781199999154	0	240322	252
471.439453125	0.637781199999154	taste	choicePhaseStart	1	35	35	foodImage.117	FOODEEG_Images\0925.jpg	NY	Left	No	0.637781199999154	0	241378	253
472.06640625	0	taste	response	1	35	35	foodImage.117	FOODEEG_Images\0925.jpg	NY	Left	No	0.637781199999154	0	241699	234
473.109375	1	decision	trialStart	1	36	36	foodImage.92	FOODEEG_Images\0900.jpg	YN	Right	No	0.646103800041601	0	242233	251
474.150390625	2	decision	foodImageDisplay	1	36	36	foodImage.92	FOODEEG_Images\0900.jpg	YN	Right	No	0.646103800041601	0	242766	252
476.21484375	0.646103800041601	decision	choicePhaseStart	1	36	36	foodImage.92	FOODEEG_Images\0900.jpg	YN	Right	No	0.646103800041601	0	243823	253
476.849609375	0	decision	response	1	36	36	foodImage.92	FOODEEG_Images\0900.jpg	YN	Right	No	0.646103800041601	0	244148	235
477.892578125	1	health	trialStart	1	37	37	foodImage.109	FOODEEG_Images\0917.jpg	YN	Right	No	0.782571600051597	0	244682	251
478.931640625	2	health	foodImageDisplay	1	37	37	foodImage.109	FOODEEG_Images\0917.jpg	YN	Right	No	0.782571600051597	0	245214	252
480.99609375	0.782571600051597	health	choicePhaseStart	1	37	37	foodImage.109	FOODEEG_Images\0917.jpg	YN	Right	No	0.782571600051597	0	246271	253
481.771484375	0	health	response	1	37	37	foodImage.109	FOODEEG_Images\0917.jpg	YN	Right	No	0.782571600051597	0	246668	235
482.814453125	1	health	trialStart	1	38	38	foodImage.73	FOODEEG_Images\0717.jpg	NY	Right	Yes	1.04199850000441	0	247202	251
483.8828125	2	health	foodImageDisplay	1	38	38	foodImage.73	FOODEEG_Images\0717.jpg	NY	Right	Yes	1.04199850000441	0	247749	252
485.9453125	1.04199850000441	health	choicePhaseStart	1	38	38	foodImage.73	FOODEEG_Images\0717.jpg	NY	Right	Yes	1.04199850000441	0	248805	253
486.978515625	0	health	response	1	38	38	foodImage.73	FOODEEG_Images\0717.jpg	NY	Right	Yes	1.04199850000441	0	249334	235
488.01953125	1	taste	trialStart	1	39	39	foodImage.82	FOODEEG_Images\0805.jpg	NY	Left	No	0.811451599933207	0	249867	251
489.078125	2	taste	foodImageDisplay	1	39	39	foodImage.82	FOODEEG_Images\0805.jpg	NY	Left	No	0.811451599933207	0	250409	252
491.140625	0.811451599933207	taste	choicePhaseStart	1	39	39	foodImage.82	FOODEEG_Images\0805.jpg	NY	Left	No	0.811451599933207	0	251465	253
491.9453125	0	taste	response	1	39	39	foodImage.82	FOODEEG_Images\0805.jpg	NY	Left	No	0.811451599933207	0	251877	234
492.990234375	1	decision	trialStart	1	40	40	foodImage.67	FOODEEG_Images\0679.jpg	NY	Left	No	1.15763340005651	0	252412	251
494.052734375	2	decision	foodImageDisplay	1	40	40	foodImage.67	FOODEEG_Images\0679.jpg	NY	Left	No	1.15763340005651	0	252956	252
496.1171875	1.15763340005651	decision	choicePhaseStart	1	40	40	foodImage.67	FOODEEG_Images\0679.jpg	NY	Left	No	1.15763340005651	0	254013	253
497.265625	0	decision	response	1	40	40	foodImage.67	FOODEEG_Images\0679.jpg	NY	Left	No	1.15763340005651	0	254601	234
498.30859375	1	decision	trialStart	1	41	41	foodImage.6	FOODEEG_Images\0113.jpg	NY	Right	Yes	0.751475600060076	0	255135	251
499.353515625	2	decision	foodImageDisplay	1	41	41	foodImage.6	FOODEEG_Images\0113.jpg	NY	Right	Yes	0.751475600060076	0	255670	252
501.416015625	0.751475600060076	decision	choicePhaseStart	1	41	41	foodImage.6	FOODEEG_Images\0113.jpg	NY	Right	Yes	0.751475600060076	0	256726	253
502.162109375	0	decision	response	1	41	41	foodImage.6	FOODEEG_Images\0113.jpg	NY	Right	Yes	0.751475600060076	0	257108	235
503.205078125	1	health	trialStart	1	42	42	foodImage.101	FOODEEG_Images\0909.jpg	NY	Left	No	1.13945479993708	0	257642	251
504.255859375	2	health	foodImageDisplay	1	42	42	foodImage.101	FOODEEG_Images\0909.jpg	NY	Left	No	1.13945479993708	0	258180	252
506.3203125	1.13945479993708	health	choicePhaseStart	1	42	42	foodImage.101	FOODEEG_Images\0909.jpg	NY	Left	No	1.13945479993708	0	259237	253
507.44921875	0	health	response	1	42	42	foodImage.101	FOODEEG_Images\0909.jpg	NY	Left	No	1.13945479993708	0	259815	234
508.494140625	1	health	trialStart	1	43	43	foodImage.66	FOODEEG_Images\0676.jpg	NY	Left	No	0.630551600130275	0	260350	251
509.548828125	2	health	foodImageDisplay	1	43	43	foodImage.66	FOODEEG_Images\0676.jpg	NY	Left	No	0.630551600130275	0	260890	252
511.611328125	0.630551600130275	health	choicePhaseStart	1	43	43	foodImage.66	FOODEEG_Images\0676.jpg	NY	Left	No	0.630551600130275	0	261946	253
512.232421875	0	health	response	1	43	43	foodImage.66	FOODEEG_Images\0676.jpg	NY	Left	No	0.630551600130275	0	262264	234
513.27734375	1	health	trialStart	1	44	44	foodImage.107	FOODEEG_Images\0915.jpg	NY	Right	Yes	0.934293900150806	0	262799	251
514.31640625	2	health	foodImageDisplay	1	44	44	foodImage.107	FOODEEG_Images\0915.jpg	NY	Right	Yes	0.934293900150806	0	263331	252
516.37890625	0.934293900150806	health	choicePhaseStart	1	44	44	foodImage.107	FOODEEG_Images\0915.jpg	NY	Right	Yes	0.934293900150806	0	264387	253
517.3046875	0	health	response	1	44	44	foodImage.107	FOODEEG_Images\0915.jpg	NY	Right	Yes	0.934293900150806	0	264861	235
518.34765625	1	taste	trialStart	1	45	45	foodImage.65	FOODEEG_Images\0658.jpg	NY	Left	No	0.557693399954587	0	265395	251
519.388671875	2	taste	foodImageDisplay	1	45	45	foodImage.65	FOODEEG_Images\0658.jpg	NY	Left	No	0.557693399954587	0	265928	252
521.453125	0.557693399954587	taste	choicePhaseStart	1	45	45	foodImage.65	FOODEEG_Images\0658.jpg	NY	Left	No	0.557693399954587	0	266985	253
522	0	taste	response	1	45	45	foodImage.65	FOODEEG_Images\0658.jpg	NY	Left	No	0.557693399954587	0	267265	234
523.04296875	1	taste	trialStart	1	46	46	foodImage.83	FOODEEG_Images\0827.jpg	YN	Right	No	1.64447990013286	0	267799	251
524.1015625	2	taste	foodImageDisplay	1	46	46	foodImage.83	FOODEEG_Images\0827.jpg	YN	Right	No	1.64447990013286	0	268341	252
526.166015625	1.64447990013286	taste	choicePhaseStart	1	46	46	foodImage.83	FOODEEG_Images\0827.jpg	YN	Right	No	1.64447990013286	0	269398	253
527.80078125	0	taste	response	1	46	46	foodImage.83	FOODEEG_Images\0827.jpg	YN	Right	No	1.64447990013286	0	270235	235
528.83984375	1	health	trialStart	1	47	47	foodImage.4	FOODEEG_Images\0065.jpg	NY	Left	No	0.81720310007222	0	270767	251
529.89453125	2	health	foodImageDisplay	1	47	47	foodImage.4	FOODEEG_Images\0065.jpg	NY	Left	No	0.81720310007222	0	271307	252
531.9609375	0.81720310007222	health	choicePhaseStart	1	47	47	foodImage.4	FOODEEG_Images\0065.jpg	NY	Left	No	0.81720310007222	0	272365	253
532.767578125	0	health	response	1	47	47	foodImage.4	FOODEEG_Images\0065.jpg	NY	Left	No	0.81720310007222	0	272778	234
533.810546875	1	health	trialStart	1	48	48	foodImage.71	FOODEEG_Images\0713.jpg	YN	Right	No	0.702773199882358	0	273312	251
534.853515625	2	health	foodImageDisplay	1	48	48	foodImage.71	FOODEEG_Images\0713.jpg	YN	Right	No	0.702773199882358	0	273846	252
536.916015625	0.702773199882358	health	choicePhaseStart	1	48	48	foodImage.71	FOODEEG_Images\0713.jpg	YN	Right	No	0.702773199882358	0	274902	253
537.607421875	0	health	response	1	48	48	foodImage.71	FOODEEG_Images\0713.jpg	YN	Right	No	0.702773199882358	0	275256	235
538.650390625	1	health	trialStart	1	49	49	foodImage.31	FOODEEG_Images\0294.jpg	YN	Right	No	0.676806200062856	0	275790	251
539.693359375	2	health	foodImageDisplay	1	49	49	foodImage.31	FOODEEG_Images\0294.jpg	YN	Right	No	0.676806200062856	0	276324	252
541.755859375	0.676806200062856	health	choicePhaseStart	1	49	49	foodImage.31	FOODEEG_Images\0294.jpg	YN	Right	No	0.676806200062856	0	277380	253
542.423828125	0	health	response	1	49	49	foodImage.31	FOODEEG_Images\0294.jpg	YN	Right	No	0.676806200062856	0	277722	235
543.462890625	1	health	trialStart	1	50	50	foodImage.95	FOODEEG_Images\0903.jpg	YN	Right	No	0.59347329987213	0	278254	251
544.50390625	2	health	foodImageDisplay	1	50	50	foodImage.95	FOODEEG_Images\0903.jpg	YN	Right	No	0.59347329987213	0	278787	252
546.568359375	0.59347329987213	health	choicePhaseStart	1	50	50	foodImage.95	FOODEEG_Images\0903.jpg	YN	Right	No	0.59347329987213	0	279844	253
547.15234375	0	health	response	1	50	50	foodImage.95	FOODEEG_Images\0903.jpg	YN	Right	No	0.59347329987213	0	280143	235
548.197265625	1	health	trialStart	1	51	51	foodImage.93	FOODEEG_Images\0901.jpg	YN	Right	No	1.3519390001893	0	280678	251
549.234375	2	health	foodImageDisplay	1	51	51	foodImage.93	FOODEEG_Images\0901.jpg	YN	Right	No	1.3519390001893	0	281209	252
551.296875	1.3519390001893	health	choicePhaseStart	1	51	51	foodImage.93	FOODEEG_Images\0901.jpg	YN	Right	No	1.3519390001893	0	282265	253
552.638671875	0	health	response	1	51	51	foodImage.93	FOODEEG_Images\0901.jpg	YN	Right	No	1.3519390001893	0	282952	235
553.681640625	1	health	trialStart	1	52	52	foodImage.97	FOODEEG_Images\0905.jpg	NY	Left	No	0.663886599941179	0	283486	251
554.73046875	2	health	foodImageDisplay	1	52	52	foodImage.97	FOODEEG_Images\0905.jpg	NY	Left	No	0.663886599941179	0	284023	252
556.79296875	0.663886599941179	health	choicePhaseStart	1	52	52	foodImage.97	FOODEEG_Images\0905.jpg	NY	Left	No	0.663886599941179	0	285079	253
557.447265625	0	health	response	1	52	52	foodImage.97	FOODEEG_Images\0905.jpg	NY	Left	No	0.663886599941179	0	285414	234
558.48828125	1	taste	trialStart	1	53	53	foodImage.116	FOODEEG_Images\0924.jpg	NY	Left	No	0.81679859990254	0	285947	251
559.52734375	2	taste	foodImageDisplay	1	53	53	foodImage.116	FOODEEG_Images\0924.jpg	NY	Left	No	0.81679859990254	0	286479	252
561.58984375	0.81679859990254	taste	choicePhaseStart	1	53	53	foodImage.116	FOODEEG_Images\0924.jpg	NY	Left	No	0.81679859990254	0	287535	253
562.3984375	0	taste	response	1	53	53	foodImage.116	FOODEEG_Images\0924.jpg	NY	Left	No	0.81679859990254	0	287949	234
563.44140625	1	decision	trialStart	1	54	54	foodImage.27	FOODEEG_Images\0263.jpg	NY	Right	Yes	0.954407399985939	0	288483	251
564.4921875	2	decision	foodImageDisplay	1	54	54	foodImage.27	FOODEEG_Images\0263.jpg	NY	Right	Yes	0.954407399985939	0	289021	252
566.55859375	0.954407399985939	decision	choicePhaseStart	1	54	54	foodImage.27	FOODEEG_Images\0263.jpg	NY	Right	Yes	0.954407399985939	0	290079	253
567.50390625	0	decision	response	1	54	54	foodImage.27	FOODEEG_Images\0263.jpg	NY	Right	Yes	0.954407399985939	0	290563	235
568.546875	1	decision	trialStart	1	55	55	foodImage.3	FOODEEG_Images\0046.jpg	NY	Right	Yes	0.657863500062376	0	291097	251
569.58984375	2	decision	foodImageDisplay	1	55	55	foodImage.3	FOODEEG_Images\0046.jpg	NY	Right	Yes	0.657863500062376	0	291631	252
571.654296875	0.657863500062376	decision	choicePhaseStart	1	55	55	foodImage.3	FOODEEG_Images\0046.jpg	NY	Right	Yes	0.657863500062376	0	292688	253
572.302734375	0	decision	response	1	55	55	foodImage.3	FOODEEG_Images\0046.jpg	NY	Right	Yes	0.657863500062376	0	293020	235
573.345703125	1	health	trialStart	1	56	56	foodImage.87	FOODEEG_Images\0873.jpg	YN	Left	Yes	0.830453000031412	0	293554	251
574.40234375	2	health	foodImageDisplay	1	56	56	foodImage.87	FOODEEG_Images\0873.jpg	YN	Left	Yes	0.830453000031412	0	294095	252
576.46484375	0.830453000031412	health	choicePhaseStart	1	56	56	foodImage.87	FOODEEG_Images\0873.jpg	YN	Left	Yes	0.830453000031412	0	295151	253
577.287109375	0	health	response	1	56	56	foodImage.87	FOODEEG_Images\0873.jpg	YN	Left	Yes	0.830453000031412	0	295572	234
578.3359375	1	health	trialStart	1	57	57	foodImage.89	FOODEEG_Images\0881.jpg	YN	Left	Yes	1.17843619990163	0	296109	251
579.400390625	2	health	foodImageDisplay	1	57	57	foodImage.89	FOODEEG_Images\0881.jpg	YN	Left	Yes	1.17843619990163	0	296654	252
581.462890625	1.17843619990163	health	choicePhaseStart	1	57	57	foodImage.89	FOODEEG_Images\0881.jpg	YN	Left	Yes	1.17843619990163	0	297710	253
582.630859375	0	health	response	1	57	57	foodImage.89	FOODEEG_Images\0881.jpg	YN	Left	Yes	1.17843619990163	0	298308	234
583.673828125	1	taste	trialStart	1	58	58	foodImage.87	FOODEEG_Images\0873.jpg	NY	Left	No	0.843693600036204	0	298842	251
584.744140625	2	taste	foodImageDisplay	1	58	58	foodImage.87	FOODEEG_Images\0873.jpg	NY	Left	No	0.843693600036204	0	299390	252
586.810546875	0.843693600036204	taste	choicePhaseStart	1	58	58	foodImage.87	FOODEEG_Images\0873.jpg	NY	Left	No	0.843693600036204	0	300448	253
587.646484375	0	taste	response	1	58	58	foodImage.87	FOODEEG_Images\0873.jpg	NY	Left	No	0.843693600036204	0	300876	234
588.689453125	1	decision	trialStart	1	59	59	foodImage.111	FOODEEG_Images\0919.jpg	YN	Right	No	0.645915400004014	0	301410	251
589.728515625	2	decision	foodImageDisplay	1	59	59	foodImage.111	FOODEEG_Images\0919.jpg	YN	Right	No	0.645915400004014	0	301942	252
591.79296875	0.645915400004014	decision	choicePhaseStart	1	59	59	foodImage.111	FOODEEG_Images\0919.jpg	YN	Right	No	0.645915400004014	0	302999	253
592.4296875	0	decision	response	1	59	59	foodImage.111	FOODEEG_Images\0919.jpg	YN	Right	No	0.645915400004014	0	303325	235
593.474609375	1	decision	trialStart	1	60	60	foodImage.40	FOODEEG_Images\0373.jpg	NY	Right	Yes	0.706052800174803	0	303860	251
594.515625	2	decision	foodImageDisplay	1	60	60	foodImage.40	FOODEEG_Images\0373.jpg	NY	Right	Yes	0.706052800174803	0	304393	252
596.580078125	0.706052800174803	decision	choicePhaseStart	1	60	60	foodImage.40	FOODEEG_Images\0373.jpg	NY	Right	Yes	0.706052800174803	0	305450	253
597.27734375	0	decision	response	1	60	60	foodImage.40	FOODEEG_Images\0373.jpg	NY	Right	Yes	0.706052800174803	0	305807	235
599.322265625	11.037109375	n/a	blockEnd	n/a	n/a	n/a	n/a	n/a	n/a	n/a	n/a	n/a	n/a	306854	254
610.359375	2	n/a	blockStart	2	n/a	n/a	n/a	n/a	n/a	n/a	n/a	n/a	n/a	312505	250
612.39453125	1	decision	trialStart	2	61	1	foodImage.65	FOODEEG_Images\0658.jpg	YN	Right	No	0.865401300136	0	313547	251
613.435546875	2	decision	foodImageDisplay	2	61	1	foodImage.65	FOODEEG_Images\0658.jpg	YN	Right	No	0.865401300136	0	314080	252
615.5	0.865401300136	decision	choicePhaseStart	2	61	1	foodImage.65	FOODEEG_Images\0658.jpg	YN	Right	No	0.865401300136	0	315137	253
616.357421875	0	decision	response	2	61	1	foodImage.65	FOODEEG_Images\0658.jpg	YN	Right	No	0.865401300136	0	315576	235
617.400390625	1	health	trialStart	2	62	2	foodImage.61	FOODEEG_Images\0640.jpg	NY	Right	Yes	1.081218900159	0	316110	251
618.451171875	2	health	foodImageDisplay	2	62	2	foodImage.61	FOODEEG_Images\0640.jpg	NY	Right	Yes	1.081218900159	0	316648	252
620.517578125	1.081218900159	health	choicePhaseStart	2	62	2	foodImage.61	FOODEEG_Images\0640.jpg	NY	Right	Yes	1.081218900159	0	317706	253
621.58984375	0	health	response	2	62	2	foodImage.61	FOODEEG_Images\0640.jpg	NY	Right	Yes	1.081218900159	0	318255	235
622.6328125	1	health	trialStart	2	63	3	foodImage.30	FOODEEG_Images\0282.jpg	YN	Left	Yes	0.768082499969751	0	318789	251
623.677734375	2	health	foodImageDisplay	2	63	3	foodImage.30	FOODEEG_Images\0282.jpg	YN	Left	Yes	0.768082499969751	0	319324	252
625.7421875	0.768082499969751	health	choicePhaseStart	2	63	3	foodImage.30	FOODEEG_Images\0282.jpg	YN	Left	Yes	0.768082499969751	0	320381	253
626.5	0	health	response	2	63	3	foodImage.30	FOODEEG_Images\0282.jpg	YN	Left	Yes	0.768082499969751	0	320769	234
627.541015625	1	decision	trialStart	2	64	4	foodImage.38	FOODEEG_Images\0365.jpg	NY	Right	Yes	1.78331349999644	0	321302	251
628.580078125	2	decision	foodImageDisplay	2	64	4	foodImage.38	FOODEEG_Images\0365.jpg	NY	Right	Yes	1.78331349999644	0	321834	252
630.64453125	1.78331349999644	decision	choicePhaseStart	2	64	4	foodImage.38	FOODEEG_Images\0365.jpg	NY	Right	Yes	1.78331349999644	0	322891	253
632.419921875	0	decision	response	2	64	4	foodImage.38	FOODEEG_Images\0365.jpg	NY	Right	Yes	1.78331349999644	0	323800	235
633.4609375	1	decision	trialStart	2	65	5	foodImage.41	FOODEEG_Images\0409.jpg	YN	Left	Yes	0.621503500035033	0	324333	251
634.51953125	2	decision	foodImageDisplay	2	65	5	foodImage.41	FOODEEG_Images\0409.jpg	YN	Left	Yes	0.621503500035033	0	324875	252
636.583984375	0.621503500035033	decision	choicePhaseStart	2	65	5	foodImage.41	FOODEEG_Images\0409.jpg	YN	Left	Yes	0.621503500035033	0	325932	253
637.1953125	0	decision	response	2	65	5	foodImage.41	FOODEEG_Images\0409.jpg	YN	Left	Yes	0.621503500035033	0	326245	234
638.23828125	1	health	trialStart	2	66	6	foodImage.74	FOODEEG_Images\0752.jpg	NY	Right	Yes	0.569993099896237	0	326779	251
639.283203125	2	health	foodImageDisplay	2	66	6	foodImage.74	FOODEEG_Images\0752.jpg	NY	Right	Yes	0.569993099896237	0	327314	252
641.34765625	0.569993099896237	health	choicePhaseStart	2	66	6	foodImage.74	FOODEEG_Images\0752.jpg	NY	Right	Yes	0.569993099896237	0	328371	253
641.908203125	0	health	response	2	66	6	foodImage.74	FOODEEG_Images\0752.jpg	NY	Right	Yes	0.569993099896237	0	328658	235
642.951171875	1	taste	trialStart	2	67	7	foodImage.44	FOODEEG_Images\0459.jpg	YN	Left	Yes	0.646757199894637	0	329192	251
643.998046875	2	taste	foodImageDisplay	2	67	7	foodImage.44	FOODEEG_Images\0459.jpg	YN	Left	Yes	0.646757199894637	0	329728	252
646.0625	0.646757199894637	taste	choicePhaseStart	2	67	7	foodImage.44	FOODEEG_Images\0459.jpg	YN	Left	Yes	0.646757199894637	0	330785	253
646.69921875	0	taste	response	2	67	7	foodImage.44	FOODEEG_Images\0459.jpg	YN	Left	Yes	0.646757199894637	0	331111	234
647.744140625	1	taste	trialStart	2	68	8	foodImage.75	FOODEEG_Images\0763.jpg	NY	Right	Yes	0.569772399961948	0	331646	251
648.787109375	2	taste	foodImageDisplay	2	68	8	foodImage.75	FOODEEG_Images\0763.jpg	NY	Right	Yes	0.569772399961948	0	332180	252
650.8515625	0.569772399961948	taste	choicePhaseStart	2	68	8	foodImage.75	FOODEEG_Images\0763.jpg	NY	Right	Yes	0.569772399961948	0	333237	253
651.412109375	0	taste	response	2	68	8	foodImage.75	FOODEEG_Images\0763.jpg	NY	Right	Yes	0.569772399961948	0	333524	235
652.455078125	1	taste	trialStart	2	69	9	foodImage.53	FOODEEG_Images\0547.jpg	YN	Left	Yes	0.572159700095654	0	334058	251
653.513671875	2	taste	foodImageDisplay	2	69	9	foodImage.53	FOODEEG_Images\0547.jpg	YN	Left	Yes	0.572159700095654	0	334600	252
655.576171875	0.572159700095654	taste	choicePhaseStart	2	69	9	foodImage.53	FOODEEG_Images\0547.jpg	YN	Left	Yes	0.572159700095654	0	335656	253
656.138671875	0	taste	response	2	69	9	foodImage.53	FOODEEG_Images\0547.jpg	YN	Left	Yes	0.572159700095654	0	335944	234
657.181640625	1	taste	trialStart	2	70	10	foodImage.99	FOODEEG_Images\0907.jpg	YN	Right	No	0.496708700200543	0	336478	251
658.220703125	2	taste	foodImageDisplay	2	70	10	foodImage.99	FOODEEG_Images\0907.jpg	YN	Right	No	0.496708700200543	0	337010	252
660.28515625	0.496708700200543	taste	choicePhaseStart	2	70	10	foodImage.99	FOODEEG_Images\0907.jpg	YN	Right	No	0.496708700200543	0	338067	253
660.771484375	0	taste	response	2	70	10	foodImage.99	FOODEEG_Images\0907.jpg	YN	Right	No	0.496708700200543	0	338316	235
661.8203125	1	taste	trialStart	2	71	11	foodImage.47	FOODEEG_Images\0488.jpg	YN	Right	No	0.580040899803862	0	338853	251
662.865234375	2	taste	foodImageDisplay	2	71	11	foodImage.47	FOODEEG_Images\0488.jpg	YN	Right	No	0.580040899803862	0	339388	252
664.9296875	0.580040899803862	taste	choicePhaseStart	2	71	11	foodImage.47	FOODEEG_Images\0488.jpg	YN	Right	No	0.580040899803862	0	340445	253
665.5	0	taste	response	2	71	11	foodImage.47	FOODEEG_Images\0488.jpg	YN	Right	No	0.580040899803862	0	340737	235
666.541015625	1	taste	trialStart	2	72	12	foodImage.119	FOODEEG_Images\0927.jpg	NY	Left	No	0.646259299945086	0	341270	251
667.58203125	2	taste	foodImageDisplay	2	72	12	foodImage.119	FOODEEG_Images\0927.jpg	NY	Left	No	0.646259299945086	0	341803	252
669.646484375	0.646259299945086	taste	choicePhaseStart	2	72	12	foodImage.119	FOODEEG_Images\0927.jpg	NY	Left	No	0.646259299945086	0	342860	253
670.283203125	0	taste	response	2	72	12	foodImage.119	FOODEEG_Images\0927.jpg	NY	Left	No	0.646259299945086	0	343186	234
671.326171875	1	health	trialStart	2	73	13	foodImage.52	FOODEEG_Images\0539.jpg	NY	Right	Yes	1.06054210010916	0	343720	251
672.384765625	2	health	foodImageDisplay	2	73	13	foodImage.52	FOODEEG_Images\0539.jpg	NY	Right	Yes	1.06054210010916	0	344262	252
674.447265625	1.06054210010916	health	choicePhaseStart	2	73	13	foodImage.52	FOODEEG_Images\0539.jpg	NY	Right	Yes	1.06054210010916	0	345318	253
675.498046875	0	health	response	2	73	13	foodImage.52	FOODEEG_Images\0539.jpg	NY	Right	Yes	1.06054210010916	0	345856	235
676.541015625	1	decision	trialStart	2	74	14	foodImage.45	FOODEEG_Images\0478.jpg	YN	Left	Yes	1.01209880015813	0	346390	251
677.591796875	2	decision	foodImageDisplay	2	74	14	foodImage.45	FOODEEG_Images\0478.jpg	YN	Left	Yes	1.01209880015813	0	346928	252
679.65625	1.01209880015813	decision	choicePhaseStart	2	74	14	foodImage.45	FOODEEG_Images\0478.jpg	YN	Left	Yes	1.01209880015813	0	347985	253
680.658203125	0	decision	response	2	74	14	foodImage.45	FOODEEG_Images\0478.jpg	YN	Left	Yes	1.01209880015813	0	348498	234
681.701171875	1	decision	trialStart	2	75	15	foodImage.18	FOODEEG_Images\0202.jpg	NY	Right	Yes	1.57574120000936	0	349032	251
682.7578125	2	decision	foodImageDisplay	2	75	15	foodImage.18	FOODEEG_Images\0202.jpg	NY	Right	Yes	1.57574120000936	0	349573	252
684.8203125	1.57574120000936	decision	choicePhaseStart	2	75	15	foodImage.18	FOODEEG_Images\0202.jpg	NY	Right	Yes	1.57574120000936	0	350629	253
686.38671875	0	decision	response	2	75	15	foodImage.18	FOODEEG_Images\0202.jpg	NY	Right	Yes	1.57574120000936	0	351431	235
687.427734375	1	health	trialStart	2	76	16	foodImage.112	FOODEEG_Images\0920.jpg	YN	Right	No	0.579578399891034	0	351964	251
688.466796875	2	health	foodImageDisplay	2	76	16	foodImage.112	FOODEEG_Images\0920.jpg	YN	Right	No	0.579578399891034	0	352496	252
690.53515625	0.579578399891034	health	choicePhaseStart	2	76	16	foodImage.112	FOODEEG_Images\0920.jpg	YN	Right	No	0.579578399891034	0	353555	253
691.10546875	0	health	response	2	76	16	foodImage.112	FOODEEG_Images\0920.jpg	YN	Right	No	0.579578399891034	0	353847	235
692.1484375	1	decision	trialStart	2	77	17	foodImage.12	FOODEEG_Images\0181.jpg	NY	Left	No	0.831066299928352	0	354381	251
693.189453125	2	decision	foodImageDisplay	2	77	17	foodImage.12	FOODEEG_Images\0181.jpg	NY	Left	No	0.831066299928352	0	354914	252
695.251953125	0.831066299928352	decision	choicePhaseStart	2	77	17	foodImage.12	FOODEEG_Images\0181.jpg	NY	Left	No	0.831066299928352	0	355970	253
696.07421875	0	decision	response	2	77	17	foodImage.12	FOODEEG_Images\0181.jpg	NY	Left	No	0.831066299928352	0	356391	234
697.1171875	1	taste	trialStart	2	78	18	foodImage.52	FOODEEG_Images\0539.jpg	NY	Right	Yes	0.626163400011137	0	356925	251
698.17578125	2	taste	foodImageDisplay	2	78	18	foodImage.52	FOODEEG_Images\0539.jpg	NY	Right	Yes	0.626163400011137	0	357467	252
700.240234375	0.626163400011137	taste	choicePhaseStart	2	78	18	foodImage.52	FOODEEG_Images\0539.jpg	NY	Right	Yes	0.626163400011137	0	358524	253
700.857421875	0	taste	response	2	78	18	foodImage.52	FOODEEG_Images\0539.jpg	NY	Right	Yes	0.626163400011137	0	358840	235
701.8984375	1	decision	trialStart	2	79	19	foodImage.112	FOODEEG_Images\0920.jpg	NY	Left	No	0.557252699974924	0	359373	251
702.94140625	2	decision	foodImageDisplay	2	79	19	foodImage.112	FOODEEG_Images\0920.jpg	NY	Left	No	0.557252699974924	0	359907	252
705.005859375	0.557252699974924	decision	choicePhaseStart	2	79	19	foodImage.112	FOODEEG_Images\0920.jpg	NY	Left	No	0.557252699974924	0	360964	253
705.552734375	0	decision	response	2	79	19	foodImage.112	FOODEEG_Images\0920.jpg	NY	Left	No	0.557252699974924	0	361244	234
706.595703125	1	taste	trialStart	2	80	20	foodImage.120	FOODEEG_Images\0928.jpg	NY	Left	No	0.672997100045905	0	361778	251
707.650390625	2	taste	foodImageDisplay	2	80	20	foodImage.120	FOODEEG_Images\0928.jpg	NY	Left	No	0.672997100045905	0	362318	252
709.71484375	0.672997100045905	taste	choicePhaseStart	2	80	20	foodImage.120	FOODEEG_Images\0928.jpg	NY	Left	No	0.672997100045905	0	363375	253
710.376953125	0	taste	response	2	80	20	foodImage.120	FOODEEG_Images\0928.jpg	NY	Left	No	0.672997100045905	0	363714	234
711.419921875	1	decision	trialStart	2	81	21	foodImage.59	FOODEEG_Images\0607.jpg	YN	Right	No	1.77260600007139	0	364248	251
712.470703125	2	decision	foodImageDisplay	2	81	21	foodImage.59	FOODEEG_Images\0607.jpg	YN	Right	No	1.77260600007139	0	364786	252
714.533203125	1.77260600007139	decision	choicePhaseStart	2	81	21	foodImage.59	FOODEEG_Images\0607.jpg	YN	Right	No	1.77260600007139	0	365842	253
716.296875	0	decision	response	2	81	21	foodImage.59	FOODEEG_Images\0607.jpg	YN	Right	No	1.77260600007139	0	366745	235
717.33984375	1	taste	trialStart	2	82	22	foodImage.28	FOODEEG_Images\0273.jpg	NY	Left	No	0.61150660016574	0	367279	251
718.384765625	2	taste	foodImageDisplay	2	82	22	foodImage.28	FOODEEG_Images\0273.jpg	NY	Left	No	0.61150660016574	0	367814	252
720.453125	0.61150660016574	taste	choicePhaseStart	2	82	22	foodImage.28	FOODEEG_Images\0273.jpg	NY	Left	No	0.61150660016574	0	368873	253
721.056640625	0	taste	response	2	82	22	foodImage.28	FOODEEG_Images\0273.jpg	NY	Left	No	0.61150660016574	0	369182	234
722.099609375	1	taste	trialStart	2	83	23	foodImage.84	FOODEEG_Images\0830.jpg	NY	Right	Yes	1.06908489996567	0	369716	251
723.158203125	2	taste	foodImageDisplay	2	83	23	foodImage.84	FOODEEG_Images\0830.jpg	NY	Right	Yes	1.06908489996567	0	370258	252
725.220703125	1.06908489996567	taste	choicePhaseStart	2	83	23	foodImage.84	FOODEEG_Images\0830.jpg	NY	Right	Yes	1.06908489996567	0	371314	253
726.28125	0	taste	response	2	83	23	foodImage.84	FOODEEG_Images\0830.jpg	NY	Right	Yes	1.06908489996567	0	371857	235
727.322265625	1	decision	trialStart	2	84	24	foodImage.68	FOODEEG_Images\0685.jpg	YN	Left	Yes	1.44643469993025	0	372390	251
728.396484375	2	decision	foodImageDisplay	2	84	24	foodImage.68	FOODEEG_Images\0685.jpg	YN	Left	Yes	1.44643469993025	0	372940	252
730.458984375	1.44643469993025	decision	choicePhaseStart	2	84	24	foodImage.68	FOODEEG_Images\0685.jpg	YN	Left	Yes	1.44643469993025	0	373996	253
731.896484375	0	decision	response	2	84	24	foodImage.68	FOODEEG_Images\0685.jpg	YN	Left	Yes	1.44643469993025	0	374732	234
732.939453125	1	health	trialStart	2	85	25	foodImage.33	FOODEEG_Images\0329.jpg	YN	Left	Yes	0.754361500032246	0	375266	251
733.982421875	2	health	foodImageDisplay	2	85	25	foodImage.33	FOODEEG_Images\0329.jpg	YN	Left	Yes	0.754361500032246	0	375800	252
736.046875	0.754361500032246	health	choicePhaseStart	2	85	25	foodImage.33	FOODEEG_Images\0329.jpg	YN	Left	Yes	0.754361500032246	0	376857	253
736.79296875	0	health	response	2	85	25	foodImage.33	FOODEEG_Images\0329.jpg	YN	Left	Yes	0.754361500032246	0	377239	234
737.833984375	1	taste	trialStart	2	86	26	foodImage.34	FOODEEG_Images\0339.jpg	YN	Left	Yes	1.36460079997778	0	377772	251
738.892578125	2	taste	foodImageDisplay	2	86	26	foodImage.34	FOODEEG_Images\0339.jpg	YN	Left	Yes	1.36460079997778	0	378314	252
740.95703125	1.36460079997778	taste	choicePhaseStart	2	86	26	foodImage.34	FOODEEG_Images\0339.jpg	YN	Left	Yes	1.36460079997778	0	379371	253
742.3125	0	taste	response	2	86	26	foodImage.34	FOODEEG_Images\0339.jpg	YN	Left	Yes	1.36460079997778	0	380065	234
743.35546875	1	decision	trialStart	2	87	27	foodImage.55	FOODEEG_Images\0567.jpg	YN	Right	No	0.620844800025225	0	380599	251
744.419921875	2	decision	foodImageDisplay	2	87	27	foodImage.55	FOODEEG_Images\0567.jpg	YN	Right	No	0.620844800025225	0	381144	252
746.484375	0.620844800025225	decision	choicePhaseStart	2	87	27	foodImage.55	FOODEEG_Images\0567.jpg	YN	Right	No	0.620844800025225	0	382201	253
747.095703125	0	decision	response	2	87	27	foodImage.55	FOODEEG_Images\0567.jpg	YN	Right	No	0.620844800025225	0	382514	235
748.142578125	1	taste	trialStart	2	88	28	foodImage.58	FOODEEG_Images\0605.jpg	YN	Right	No	0.98014310002327	0	383050	251
749.19921875	2	taste	foodImageDisplay	2	88	28	foodImage.58	FOODEEG_Images\0605.jpg	YN	Right	No	0.98014310002327	0	383591	252
751.26171875	0.98014310002327	taste	choicePhaseStart	2	88	28	foodImage.58	FOODEEG_Images\0605.jpg	YN	Right	No	0.98014310002327	0	384647	253
752.232421875	0	taste	response	2	88	28	foodImage.58	FOODEEG_Images\0605.jpg	YN	Right	No	0.98014310002327	0	385144	235
753.275390625	1	health	trialStart	2	89	29	foodImage.25	FOODEEG_Images\0261.jpg	NY	Right	Yes	0.773799600079656	0	385678	251
754.31640625	2	health	foodImageDisplay	2	89	29	foodImage.25	FOODEEG_Images\0261.jpg	NY	Right	Yes	0.773799600079656	0	386211	252
756.37890625	0.773799600079656	health	choicePhaseStart	2	89	29	foodImage.25	FOODEEG_Images\0261.jpg	NY	Right	Yes	0.773799600079656	0	387267	253
757.142578125	0	health	response	2	89	29	foodImage.25	FOODEEG_Images\0261.jpg	NY	Right	Yes	0.773799600079656	0	387658	235
758.1875	1	taste	trialStart	2	90	30	foodImage.3	FOODEEG_Images\0046.jpg	NY	Right	Yes	0.629209700040519	0	388193	251
759.236328125	2	taste	foodImageDisplay	2	90	30	foodImage.3	FOODEEG_Images\0046.jpg	NY	Right	Yes	0.629209700040519	0	388730	252
761.298828125	0.629209700040519	taste	choicePhaseStart	2	90	30	foodImage.3	FOODEEG_Images\0046.jpg	NY	Right	Yes	0.629209700040519	0	389786	253
761.919921875	0	taste	response	2	90	30	foodImage.3	FOODEEG_Images\0046.jpg	NY	Right	Yes	0.629209700040519	0	390104	235
762.96484375	1	decision	trialStart	2	91	31	foodImage.34	FOODEEG_Images\0339.jpg	NY	Right	Yes	0.85269119986333	0	390639	251
764.033203125	2	decision	foodImageDisplay	2	91	31	foodImage.34	FOODEEG_Images\0339.jpg	NY	Right	Yes	0.85269119986333	0	391186	252
766.099609375	0.85269119986333	decision	choicePhaseStart	2	91	31	foodImage.34	FOODEEG_Images\0339.jpg	NY	Right	Yes	0.85269119986333	0	392244	253
766.943359375	0	decision	response	2	91	31	foodImage.34	FOODEEG_Images\0339.jpg	NY	Right	Yes	0.85269119986333	0	392676	235
767.984375	1	health	trialStart	2	92	32	foodImage.35	FOODEEG_Images\0350.jpg	NY	Left	No	1.6067258999683	0	393209	251
769.025390625	2	health	foodImageDisplay	2	92	32	foodImage.35	FOODEEG_Images\0350.jpg	NY	Left	No	1.6067258999683	0	393742	252
771.08984375	1.6067258999683	health	choicePhaseStart	2	92	32	foodImage.35	FOODEEG_Images\0350.jpg	NY	Left	No	1.6067258999683	0	394799	253
772.6875	0	health	response	2	92	32	foodImage.35	FOODEEG_Images\0350.jpg	NY	Left	No	1.6067258999683	0	395617	234
773.73046875	1	decision	trialStart	2	93	33	foodImage.104	FOODEEG_Images\0912.jpg	NY	Right	Yes	0.50466370000504	0	396151	251
774.775390625	2	decision	foodImageDisplay	2	93	33	foodImage.104	FOODEEG_Images\0912.jpg	NY	Right	Yes	0.50466370000504	0	396686	252
776.83984375	0.50466370000504	decision	choicePhaseStart	2	93	33	foodImage.104	FOODEEG_Images\0912.jpg	NY	Right	Yes	0.50466370000504	0	397743	253
777.333984375	0	decision	response	2	93	33	foodImage.104	FOODEEG_Images\0912.jpg	NY	Right	Yes	0.50466370000504	0	397996	235
778.376953125	1	taste	trialStart	2	94	34	foodImage.101	FOODEEG_Images\0909.jpg	NY	Left	No	0.618766999803483	0	398530	251
779.4140625	2	taste	foodImageDisplay	2	94	34	foodImage.101	FOODEEG_Images\0909.jpg	NY	Left	No	0.618766999803483	0	399061	252
781.4765625	0.618766999803483	taste	choicePhaseStart	2	94	34	foodImage.101	FOODEEG_Images\0909.jpg	NY	Left	No	0.618766999803483	0	400117	253
782.0859375	0	taste	response	2	94	34	foodImage.101	FOODEEG_Images\0909.jpg	NY	Left	No	0.618766999803483	0	400429	234
783.12890625	1	decision	trialStart	2	95	35	foodImage.84	FOODEEG_Images\0830.jpg	YN	Left	Yes	0.921313900034875	0	400963	251
784.18359375	2	decision	foodImageDisplay	2	95	35	foodImage.84	FOODEEG_Images\0830.jpg	YN	Left	Yes	0.921313900034875	0	401503	252
786.248046875	0.921313900034875	decision	choicePhaseStart	2	95	35	foodImage.84	FOODEEG_Images\0830.jpg	YN	Left	Yes	0.921313900034875	0	402560	253
787.16015625	0	decision	response	2	95	35	foodImage.84	FOODEEG_Images\0830.jpg	YN	Left	Yes	0.921313900034875	0	403027	234
788.201171875	1	taste	trialStart	2	96	36	foodImage.14	FOODEEG_Images\0188.jpg	NY	Right	Yes	0.533679999876767	0	403560	251
789.2734375	2	taste	foodImageDisplay	2	96	36	foodImage.14	FOODEEG_Images\0188.jpg	NY	Right	Yes	0.533679999876767	0	404109	252
791.3359375	0.533679999876767	taste	choicePhaseStart	2	96	36	foodImage.14	FOODEEG_Images\0188.jpg	NY	Right	Yes	0.533679999876767	0	405165	253
791.861328125	0	taste	response	2	96	36	foodImage.14	FOODEEG_Images\0188.jpg	NY	Right	Yes	0.533679999876767	0	405434	235
792.90625	1	health	trialStart	2	97	37	foodImage.20	FOODEEG_Images\0226.jpg	YN	Left	Yes	1.04910379997455	0	405969	251
793.951171875	2	health	foodImageDisplay	2	97	37	foodImage.20	FOODEEG_Images\0226.jpg	YN	Left	Yes	1.04910379997455	0	406504	252
796.015625	1.04910379997455	health	choicePhaseStart	2	97	37	foodImage.20	FOODEEG_Images\0226.jpg	YN	Left	Yes	1.04910379997455	0	407561	253
797.0546875	0	health	response	2	97	37	foodImage.20	FOODEEG_Images\0226.jpg	YN	Left	Yes	1.04910379997455	0	408093	234
798.1015625	1	decision	trialStart	2	98	38	foodImage.95	FOODEEG_Images\0903.jpg	NY	Left	No	1.18319229991175	0	408629	251
799.142578125	2	decision	foodImageDisplay	2	98	38	foodImage.95	FOODEEG_Images\0903.jpg	NY	Left	No	1.18319229991175	0	409162	252
801.205078125	1.18319229991175	decision	choicePhaseStart	2	98	38	foodImage.95	FOODEEG_Images\0903.jpg	NY	Left	No	1.18319229991175	0	410218	253
802.380859375	0	decision	response	2	98	38	foodImage.95	FOODEEG_Images\0903.jpg	NY	Left	No	1.18319229991175	0	410820	234
803.42578125	1	health	trialStart	2	99	39	foodImage.10	FOODEEG_Images\0145.jpg	NY	Left	No	0.889587099896744	0	411355	251
804.484375	2	health	foodImageDisplay	2	99	39	foodImage.10	FOODEEG_Images\0145.jpg	NY	Left	No	0.889587099896744	0	411897	252
806.548828125	0.889587099896744	health	choicePhaseStart	2	99	39	foodImage.10	FOODEEG_Images\0145.jpg	NY	Left	No	0.889587099896744	0	412954	253
807.4296875	0	health	response	2	99	39	foodImage.10	FOODEEG_Images\0145.jpg	NY	Left	No	0.889587099896744	0	413405	234
808.47265625	1	decision	trialStart	2	100	40	foodImage.17	FOODEEG_Images\0199.jpg	NY	Right	Yes	1.17368790018372	0	413939	251
809.51171875	2	decision	foodImageDisplay	2	100	40	foodImage.17	FOODEEG_Images\0199.jpg	NY	Right	Yes	1.17368790018372	0	414471	252
811.578125	1.17368790018372	decision	choicePhaseStart	2	100	40	foodImage.17	FOODEEG_Images\0199.jpg	NY	Right	Yes	1.17368790018372	0	415529	253
812.7421875	0	decision	response	2	100	40	foodImage.17	FOODEEG_Images\0199.jpg	NY	Right	Yes	1.17368790018372	0	416125	235
813.783203125	1	health	trialStart	2	101	41	foodImage.42	FOODEEG_Images\0438.jpg	YN	Left	Yes	0.975638499949127	0	416658	251
814.87109375	2	health	foodImageDisplay	2	101	41	foodImage.42	FOODEEG_Images\0438.jpg	YN	Left	Yes	0.975638499949127	0	417215	252
816.935546875	0.975638499949127	health	choicePhaseStart	2	101	41	foodImage.42	FOODEEG_Images\0438.jpg	YN	Left	Yes	0.975638499949127	0	418272	253
817.900390625	0	health	response	2	101	41	foodImage.42	FOODEEG_Images\0438.jpg	YN	Left	Yes	0.975638499949127	0	418766	234
818.9453125	1	health	trialStart	2	102	42	foodImage.38	FOODEEG_Images\0365.jpg	NY	Right	Yes	0.830520999850705	0	419301	251
819.984375	2	health	foodImageDisplay	2	102	42	foodImage.38	FOODEEG_Images\0365.jpg	NY	Right	Yes	0.830520999850705	0	419833	252
822.046875	0.830520999850705	health	choicePhaseStart	2	102	42	foodImage.38	FOODEEG_Images\0365.jpg	NY	Right	Yes	0.830520999850705	0	420889	253
822.869140625	0	health	response	2	102	42	foodImage.38	FOODEEG_Images\0365.jpg	NY	Right	Yes	0.830520999850705	0	421310	235
823.91015625	1	health	trialStart	2	103	43	foodImage.21	FOODEEG_Images\0234.jpg	YN	Left	Yes	0.799275500001386	0	421843	251
824.966796875	2	health	foodImageDisplay	2	103	43	foodImage.21	FOODEEG_Images\0234.jpg	YN	Left	Yes	0.799275500001386	0	422384	252
827.03125	0.799275500001386	health	choicePhaseStart	2	103	43	foodImage.21	FOODEEG_Images\0234.jpg	YN	Left	Yes	0.799275500001386	0	423441	253
827.8203125	0	health	response	2	103	43	foodImage.21	FOODEEG_Images\0234.jpg	YN	Left	Yes	0.799275500001386	0	423845	234
828.86328125	1	health	trialStart	2	104	44	foodImage.53	FOODEEG_Images\0547.jpg	YN	Right	No	1.16297300020233	0	424379	251
829.91796875	2	health	foodImageDisplay	2	104	44	foodImage.53	FOODEEG_Images\0547.jpg	YN	Right	No	1.16297300020233	0	424919	252
831.98046875	1.16297300020233	health	choicePhaseStart	2	104	44	foodImage.53	FOODEEG_Images\0547.jpg	YN	Right	No	1.16297300020233	0	425975	253
833.1328125	0	health	response	2	104	44	foodImage.53	FOODEEG_Images\0547.jpg	YN	Right	No	1.16297300020233	0	426565	235
834.17578125	1	taste	trialStart	2	105	45	foodImage.10	FOODEEG_Images\0145.jpg	NY	Right	Yes	1.38252890016884	0	427099	251
835.23046875	2	taste	foodImageDisplay	2	105	45	foodImage.10	FOODEEG_Images\0145.jpg	NY	Right	Yes	1.38252890016884	0	427639	252
837.294921875	1.38252890016884	taste	choicePhaseStart	2	105	45	foodImage.10	FOODEEG_Images\0145.jpg	NY	Right	Yes	1.38252890016884	0	428696	253
838.66796875	0	taste	response	2	105	45	foodImage.10	FOODEEG_Images\0145.jpg	NY	Right	Yes	1.38252890016884	0	429399	235
839.7109375	1	health	trialStart	2	106	46	foodImage.48	FOODEEG_Images\0494.jpg	YN	Right	No	0.873470700113103	0	429933	251
840.755859375	2	health	foodImageDisplay	2	106	46	foodImage.48	FOODEEG_Images\0494.jpg	YN	Right	No	0.873470700113103	0	430468	252
842.8203125	0.873470700113103	health	choicePhaseStart	2	106	46	foodImage.48	FOODEEG_Images\0494.jpg	YN	Right	No	0.873470700113103	0	431525	253
843.68359375	0	health	response	2	106	46	foodImage.48	FOODEEG_Images\0494.jpg	YN	Right	No	0.873470700113103	0	431967	235
844.7265625	1	decision	trialStart	2	107	47	foodImage.21	FOODEEG_Images\0234.jpg	NY	Right	Yes	0.802793900016695	0	432501	251
845.78125	2	decision	foodImageDisplay	2	107	47	foodImage.21	FOODEEG_Images\0234.jpg	NY	Right	Yes	0.802793900016695	0	433041	252
847.84765625	0.802793900016695	decision	choicePhaseStart	2	107	47	foodImage.21	FOODEEG_Images\0234.jpg	NY	Right	Yes	0.802793900016695	0	434099	253
848.64453125	0	decision	response	2	107	47	foodImage.21	FOODEEG_Images\0234.jpg	NY	Right	Yes	0.802793900016695	0	434507	235
849.689453125	1	taste	trialStart	2	108	48	foodImage.50	FOODEEG_Images\0529.jpg	YN	Right	No	1.19680119981058	0	435042	251
850.765625	2	taste	foodImageDisplay	2	108	48	foodImage.50	FOODEEG_Images\0529.jpg	YN	Right	No	1.19680119981058	0	435593	252
852.83203125	1.19680119981058	taste	choicePhaseStart	2	108	48	foodImage.50	FOODEEG_Images\0529.jpg	YN	Right	No	1.19680119981058	0	436651	253
854.01953125	0	taste	response	2	108	48	foodImage.50	FOODEEG_Images\0529.jpg	YN	Right	No	1.19680119981058	0	437259	235
855.0625	1	taste	trialStart	2	109	49	foodImage.30	FOODEEG_Images\0282.jpg	YN	Left	Yes	0.985256799962372	0	437793	251
856.1015625	2	taste	foodImageDisplay	2	109	49	foodImage.30	FOODEEG_Images\0282.jpg	YN	Left	Yes	0.985256799962372	0	438325	252
858.1640625	0.985256799962372	taste	choicePhaseStart	2	109	49	foodImage.30	FOODEEG_Images\0282.jpg	YN	Left	Yes	0.985256799962372	0	439381	253
859.140625	0	taste	response	2	109	49	foodImage.30	FOODEEG_Images\0282.jpg	YN	Left	Yes	0.985256799962372	0	439881	234
860.181640625	1	health	trialStart	2	110	50	foodImage.114	FOODEEG_Images\0922.jpg	NY	Left	No	1.09420739999041	0	440414	251
861.232421875	2	health	foodImageDisplay	2	110	50	foodImage.114	FOODEEG_Images\0922.jpg	NY	Left	No	1.09420739999041	0	440952	252
863.294921875	1.09420739999041	health	choicePhaseStart	2	110	50	foodImage.114	FOODEEG_Images\0922.jpg	NY	Left	No	1.09420739999041	0	442008	253
864.37890625	0	health	response	2	110	50	foodImage.114	FOODEEG_Images\0922.jpg	NY	Left	No	1.09420739999041	0	442563	234
865.421875	1	taste	trialStart	2	111	51	foodImage.25	FOODEEG_Images\0261.jpg	NY	Right	Yes	0.887618799926713	0	443097	251
866.484375	2	taste	foodImageDisplay	2	111	51	foodImage.25	FOODEEG_Images\0261.jpg	NY	Right	Yes	0.887618799926713	0	443641	252
868.548828125	0.887618799926713	taste	choicePhaseStart	2	111	51	foodImage.25	FOODEEG_Images\0261.jpg	NY	Right	Yes	0.887618799926713	0	444698	253
869.427734375	0	taste	response	2	111	51	foodImage.25	FOODEEG_Images\0261.jpg	NY	Right	Yes	0.887618799926713	0	445148	235
870.470703125	1	health	trialStart	2	112	52	foodImage.40	FOODEEG_Images\0373.jpg	YN	Right	No	1.1093089999631	0	445682	251
871.51171875	2	health	foodImageDisplay	2	112	52	foodImage.40	FOODEEG_Images\0373.jpg	YN	Right	No	1.1093089999631	0	446215	252
873.576171875	1.1093089999631	health	choicePhaseStart	2	112	52	foodImage.40	FOODEEG_Images\0373.jpg	YN	Right	No	1.1093089999631	0	447272	253
874.67578125	0	health	response	2	112	52	foodImage.40	FOODEEG_Images\0373.jpg	YN	Right	No	1.1093089999631	0	447835	235
875.716796875	1	decision	trialStart	2	113	53	foodImage.90	FOODEEG_Images\0890.jpg	YN	Left	Yes	0.739510399987921	0	448368	251
876.77734375	2	decision	foodImageDisplay	2	113	53	foodImage.90	FOODEEG_Images\0890.jpg	YN	Left	Yes	0.739510399987921	0	448911	252
878.83984375	0.739510399987921	decision	choicePhaseStart	2	113	53	foodImage.90	FOODEEG_Images\0890.jpg	YN	Left	Yes	0.739510399987921	0	449967	253
879.5703125	0	decision	response	2	113	53	foodImage.90	FOODEEG_Images\0890.jpg	YN	Left	Yes	0.739510399987921	0	450341	234
880.61328125	1	taste	trialStart	2	114	54	foodImage.40	FOODEEG_Images\0373.jpg	YN	Left	Yes	0.758782099932432	0	450875	251
881.654296875	2	taste	foodImageDisplay	2	114	54	foodImage.40	FOODEEG_Images\0373.jpg	YN	Left	Yes	0.758782099932432	0	451408	252
883.716796875	0.758782099932432	taste	choicePhaseStart	2	114	54	foodImage.40	FOODEEG_Images\0373.jpg	YN	Left	Yes	0.758782099932432	0	452464	253
884.466796875	0	taste	response	2	114	54	foodImage.40	FOODEEG_Images\0373.jpg	YN	Left	Yes	0.758782099932432	0	452848	234
885.505859375	1	decision	trialStart	2	115	55	foodImage.76	FOODEEG_Images\0766.jpg	NY	Right	Yes	0.908686599927023	0	453380	251
886.55078125	2	decision	foodImageDisplay	2	115	55	foodImage.76	FOODEEG_Images\0766.jpg	NY	Right	Yes	0.908686599927023	0	453915	252
888.615234375	0.908686599927023	decision	choicePhaseStart	2	115	55	foodImage.76	FOODEEG_Images\0766.jpg	NY	Right	Yes	0.908686599927023	0	454972	253
889.513671875	0	decision	response	2	115	55	foodImage.76	FOODEEG_Images\0766.jpg	NY	Right	Yes	0.908686599927023	0	455432	235
890.556640625	1	decision	trialStart	2	116	56	foodImage.9	FOODEEG_Images\0138.jpg	YN	Right	No	1.11576099996455	0	455966	251
891.615234375	2	decision	foodImageDisplay	2	116	56	foodImage.9	FOODEEG_Images\0138.jpg	YN	Right	No	1.11576099996455	0	456508	252
893.6796875	1.11576099996455	decision	choicePhaseStart	2	116	56	foodImage.9	FOODEEG_Images\0138.jpg	YN	Right	No	1.11576099996455	0	457565	253
894.78515625	0	decision	response	2	116	56	foodImage.9	FOODEEG_Images\0138.jpg	YN	Right	No	1.11576099996455	0	458131	235
895.8359375	1	decision	trialStart	2	117	57	foodImage.24	FOODEEG_Images\0250.jpg	NY	Right	Yes	0.55198680004105	0	458669	251
896.892578125	2	decision	foodImageDisplay	2	117	57	foodImage.24	FOODEEG_Images\0250.jpg	NY	Right	Yes	0.55198680004105	0	459210	252
898.955078125	0.55198680004105	decision	choicePhaseStart	2	117	57	foodImage.24	FOODEEG_Images\0250.jpg	NY	Right	Yes	0.55198680004105	0	460266	253
899.498046875	0	decision	response	2	117	57	foodImage.24	FOODEEG_Images\0250.jpg	NY	Right	Yes	0.55198680004105	0	460544	235
900.541015625	1	health	trialStart	2	118	58	foodImage.64	FOODEEG_Images\0647.jpg	NY	Right	Yes	0.942843800177798	0	461078	251
901.62109375	2	health	foodImageDisplay	2	118	58	foodImage.64	FOODEEG_Images\0647.jpg	NY	Right	Yes	0.942843800177798	0	461631	252
903.68359375	0.942843800177798	health	choicePhaseStart	2	118	58	foodImage.64	FOODEEG_Images\0647.jpg	NY	Right	Yes	0.942843800177798	0	462687	253
904.6171875	0	health	response	2	118	58	foodImage.64	FOODEEG_Images\0647.jpg	NY	Right	Yes	0.942843800177798	0	463165	235
905.66015625	1	health	trialStart	2	119	59	foodImage.43	FOODEEG_Images\0445.jpg	YN	Left	Yes	1.33025390002877	0	463699	251
906.720703125	2	health	foodImageDisplay	2	119	59	foodImage.43	FOODEEG_Images\0445.jpg	YN	Left	Yes	1.33025390002877	0	464242	252
908.78515625	1.33025390002877	health	choicePhaseStart	2	119	59	foodImage.43	FOODEEG_Images\0445.jpg	YN	Left	Yes	1.33025390002877	0	465299	253
910.10546875	0	health	response	2	119	59	foodImage.43	FOODEEG_Images\0445.jpg	YN	Left	Yes	1.33025390002877	0	465975	234
911.1484375	1	taste	trialStart	2	120	60	foodImage.48	FOODEEG_Images\0494.jpg	YN	Right	No	1.72605269984342	0	466509	251
912.189453125	2	taste	foodImageDisplay	2	120	60	foodImage.48	FOODEEG_Images\0494.jpg	YN	Right	No	1.72605269984342	0	467042	252
914.25390625	1.72605269984342	taste	choicePhaseStart	2	120	60	foodImage.48	FOODEEG_Images\0494.jpg	YN	Right	No	1.72605269984342	0	468099	253
915.96875	0	taste	response	2	120	60	foodImage.48	FOODEEG_Images\0494.jpg	YN	Right	No	1.72605269984342	0	468977	235
918.01171875	46.501953125	n/a	blockEnd	n/a	n/a	n/a	n/a	n/a	n/a	n/a	n/a	n/a	n/a	470023	254
964.513671875	2	n/a	blockStart	3	n/a	n/a	n/a	n/a	n/a	n/a	n/a	n/a	n/a	493832	250
966.546875	1	decision	trialStart	3	121	1	foodImage.116	FOODEEG_Images\0924.jpg	YN	Right	No	0.719573599984869	0	494873	251
967.5859375	2	decision	foodImageDisplay	3	121	1	foodImage.116	FOODEEG_Images\0924.jpg	YN	Right	No	0.719573599984869	0	495405	252
969.6484375	0.719573599984869	decision	choicePhaseStart	3	121	1	foodImage.116	FOODEEG_Images\0924.jpg	YN	Right	No	0.719573599984869	0	496461	253
970.359375	0	decision	response	3	121	1	foodImage.116	FOODEEG_Images\0924.jpg	YN	Right	No	0.719573599984869	0	496825	235
971.40234375	1	health	trialStart	3	122	2	foodImage.77	FOODEEG_Images\0771.jpg	NY	Right	Yes	0.953826300101355	0	497359	251
972.447265625	2	health	foodImageDisplay	3	122	2	foodImage.77	FOODEEG_Images\0771.jpg	NY	Right	Yes	0.953826300101355	0	497894	252
974.509765625	0.953826300101355	health	choicePhaseStart	3	122	2	foodImage.77	FOODEEG_Images\0771.jpg	NY	Right	Yes	0.953826300101355	0	498950	253
975.455078125	0	health	response	3	122	2	foodImage.77	FOODEEG_Images\0771.jpg	NY	Right	Yes	0.953826300101355	0	499434	235
976.498046875	1	health	trialStart	3	123	3	foodImage.37	FOODEEG_Images\0359.jpg	YN	Left	Yes	0.589186900062487	0	499968	251
977.541015625	2	health	foodImageDisplay	3	123	3	foodImage.37	FOODEEG_Images\0359.jpg	YN	Left	Yes	0.589186900062487	0	500502	252
979.607421875	0.589186900062487	health	choicePhaseStart	3	123	3	foodImage.37	FOODEEG_Images\0359.jpg	YN	Left	Yes	0.589186900062487	0	501560	253
980.19140625	0	health	response	3	123	3	foodImage.37	FOODEEG_Images\0359.jpg	YN	Left	Yes	0.589186900062487	0	501859	234
981.234375	1	health	trialStart	3	124	4	foodImage.36	FOODEEG_Images\0352.jpg	NY	Right	Yes	1.16791229997762	0	502393	251
982.314453125	2	health	foodImageDisplay	3	124	4	foodImage.36	FOODEEG_Images\0352.jpg	NY	Right	Yes	1.16791229997762	0	502946	252
984.376953125	1.16791229997762	health	choicePhaseStart	3	124	4	foodImage.36	FOODEEG_Images\0352.jpg	NY	Right	Yes	1.16791229997762	0	504002	253
985.53515625	0	health	response	3	124	4	foodImage.36	FOODEEG_Images\0352.jpg	NY	Right	Yes	1.16791229997762	0	504595	235
986.578125	1	decision	trialStart	3	125	5	foodImage.54	FOODEEG_Images\0560.jpg	NY	Right	Yes	0.588136400096118	0	505129	251
987.63671875	2	decision	foodImageDisplay	3	125	5	foodImage.54	FOODEEG_Images\0560.jpg	NY	Right	Yes	0.588136400096118	0	505671	252
989.69921875	0.588136400096118	decision	choicePhaseStart	3	125	5	foodImage.54	FOODEEG_Images\0560.jpg	NY	Right	Yes	0.588136400096118	0	506727	253
990.27734375	0	decision	response	3	125	5	foodImage.54	FOODEEG_Images\0560.jpg	NY	Right	Yes	0.588136400096118	0	507023	235
991.322265625	1	health	trialStart	3	126	6	foodImage.72	FOODEEG_Images\0714.jpg	NY	Left	No	0.71557220001705	0	507558	251
992.380859375	2	health	foodImageDisplay	3	126	6	foodImage.72	FOODEEG_Images\0714.jpg	NY	Left	No	0.71557220001705	0	508100	252
994.443359375	0.71557220001705	health	choicePhaseStart	3	126	6	foodImage.72	FOODEEG_Images\0714.jpg	NY	Left	No	0.71557220001705	0	509156	253
995.150390625	0	health	response	3	126	6	foodImage.72	FOODEEG_Images\0714.jpg	NY	Left	No	0.71557220001705	0	509518	234
996.193359375	1	decision	trialStart	3	127	7	foodImage.91	FOODEEG_Images\0896.jpg	NY	Right	Yes	0.793952599866316	0	510052	251
997.26953125	2	decision	foodImageDisplay	3	127	7	foodImage.91	FOODEEG_Images\0896.jpg	NY	Right	Yes	0.793952599866316	0	510603	252
999.333984375	0.793952599866316	decision	choicePhaseStart	3	127	7	foodImage.91	FOODEEG_Images\0896.jpg	NY	Right	Yes	0.793952599866316	0	511660	253
1000.1171875	0	decision	response	3	127	7	foodImage.91	FOODEEG_Images\0896.jpg	NY	Right	Yes	0.793952599866316	0	512061	235
1001.16015625	1	taste	trialStart	3	128	8	foodImage.13	FOODEEG_Images\0183.jpg	YN	Left	Yes	0.685668800026178	0	512595	251
1002.203125	2	taste	foodImageDisplay	3	128	8	foodImage.13	FOODEEG_Images\0183.jpg	YN	Left	Yes	0.685668800026178	0	513129	252
1004.265625	0.685668800026178	taste	choicePhaseStart	3	128	8	foodImage.13	FOODEEG_Images\0183.jpg	YN	Left	Yes	0.685668800026178	0	514185	253
1004.94140625	0	taste	response	3	128	8	foodImage.13	FOODEEG_Images\0183.jpg	YN	Left	Yes	0.685668800026178	0	514531	234
1005.984375	1	health	trialStart	3	129	9	foodImage.119	FOODEEG_Images\0927.jpg	YN	Right	No	0.570485899923369	0	515065	251
1007.0234375	2	health	foodImageDisplay	3	129	9	foodImage.119	FOODEEG_Images\0927.jpg	YN	Right	No	0.570485899923369	0	515597	252
1009.083984375	0.570485899923369	health	choicePhaseStart	3	129	9	foodImage.119	FOODEEG_Images\0927.jpg	YN	Right	No	0.570485899923369	0	516652	253
1009.646484375	0	health	response	3	129	9	foodImage.119	FOODEEG_Images\0927.jpg	YN	Right	No	0.570485899923369	0	516940	235
1010.689453125	1	decision	trialStart	3	130	10	foodImage.114	FOODEEG_Images\0922.jpg	YN	Right	No	0.677587699843571	0	517474	251
1011.728515625	2	decision	foodImageDisplay	3	130	10	foodImage.114	FOODEEG_Images\0922.jpg	YN	Right	No	0.677587699843571	0	518006	252
1013.79296875	0.677587699843571	decision	choicePhaseStart	3	130	10	foodImage.114	FOODEEG_Images\0922.jpg	YN	Right	No	0.677587699843571	0	519063	253
1014.4609375	0	decision	response	3	130	10	foodImage.114	FOODEEG_Images\0922.jpg	YN	Right	No	0.677587699843571	0	519405	235
1015.50390625	1	decision	trialStart	3	131	11	foodImage.39	FOODEEG_Images\0367.jpg	NY	Left	No	0.608705800026655	0	519939	251
1016.54296875	2	decision	foodImageDisplay	3	131	11	foodImage.39	FOODEEG_Images\0367.jpg	NY	Left	No	0.608705800026655	0	520471	252
1018.60546875	0.608705800026655	decision	choicePhaseStart	3	131	11	foodImage.39	FOODEEG_Images\0367.jpg	NY	Left	No	0.608705800026655	0	521527	253
1019.205078125	0	decision	response	3	131	11	foodImage.39	FOODEEG_Images\0367.jpg	NY	Left	No	0.608705800026655	0	521834	234
1020.24609375	1	health	trialStart	3	132	12	foodImage.90	FOODEEG_Images\0890.jpg	YN	Right	No	1.22479249979369	0	522367	251
1021.306640625	2	health	foodImageDisplay	3	132	12	foodImage.90	FOODEEG_Images\0890.jpg	YN	Right	No	1.22479249979369	0	522910	252
1023.37109375	1.22479249979369	health	choicePhaseStart	3	132	12	foodImage.90	FOODEEG_Images\0890.jpg	YN	Right	No	1.22479249979369	0	523967	253
1024.58984375	0	health	response	3	132	12	foodImage.90	FOODEEG_Images\0890.jpg	YN	Right	No	1.22479249979369	0	524591	235
1025.630859375	1	taste	trialStart	3	133	13	foodImage.107	FOODEEG_Images\0915.jpg	NY	Right	Yes	0.656815599882975	0	525124	251
1026.669921875	2	taste	foodImageDisplay	3	133	13	foodImage.107	FOODEEG_Images\0915.jpg	NY	Right	Yes	0.656815599882975	0	525656	252
1028.734375	0.656815599882975	taste	choicePhaseStart	3	133	13	foodImage.107	FOODEEG_Images\0915.jpg	NY	Right	Yes	0.656815599882975	0	526713	253
1029.380859375	0	taste	response	3	133	13	foodImage.107	FOODEEG_Images\0915.jpg	NY	Right	Yes	0.656815599882975	0	527044	235
1030.423828125	1	decision	trialStart	3	134	14	foodImage.120	FOODEEG_Images\0928.jpg	NY	Left	No	1.13995889993384	0	527578	251
1031.462890625	2	decision	foodImageDisplay	3	134	14	foodImage.120	FOODEEG_Images\0928.jpg	NY	Left	No	1.13995889993384	0	528110	252
1033.529296875	1.13995889993384	decision	choicePhaseStart	3	134	14	foodImage.120	FOODEEG_Images\0928.jpg	NY	Left	No	1.13995889993384	0	529168	253
1034.66015625	0	decision	response	3	134	14	foodImage.120	FOODEEG_Images\0928.jpg	NY	Left	No	1.13995889993384	0	529747	234
1035.7109375	1	health	trialStart	3	135	15	foodImage.51	FOODEEG_Images\0536.jpg	YN	Right	No	1.23065849998966	0	530285	251
1036.7578125	2	health	foodImageDisplay	3	135	15	foodImage.51	FOODEEG_Images\0536.jpg	YN	Right	No	1.23065849998966	0	530821	252
1038.822265625	1.23065849998966	health	choicePhaseStart	3	135	15	foodImage.51	FOODEEG_Images\0536.jpg	YN	Right	No	1.23065849998966	0	531878	253
1040.044921875	0	health	response	3	135	15	foodImage.51	FOODEEG_Images\0536.jpg	YN	Right	No	1.23065849998966	0	532504	235
1041.087890625	1	decision	trialStart	3	136	16	foodImage.25	FOODEEG_Images\0261.jpg	YN	Left	Yes	0.628268199972808	0	533038	251
1042.130859375	2	decision	foodImageDisplay	3	136	16	foodImage.25	FOODEEG_Images\0261.jpg	YN	Left	Yes	0.628268199972808	0	533572	252
1044.193359375	0.628268199972808	decision	choicePhaseStart	3	136	16	foodImage.25	FOODEEG_Images\0261.jpg	YN	Left	Yes	0.628268199972808	0	534628	253
1044.8125	0	decision	response	3	136	16	foodImage.25	FOODEEG_Images\0261.jpg	YN	Left	Yes	0.628268199972808	0	534945	234
1045.85546875	1	decision	trialStart	3	137	17	foodImage.31	FOODEEG_Images\0294.jpg	NY	Right	Yes	0.895566300023347	0	535479	251
1046.8984375	2	decision	foodImageDisplay	3	137	17	foodImage.31	FOODEEG_Images\0294.jpg	NY	Right	Yes	0.895566300023347	0	536013	252
1048.962890625	0.895566300023347	decision	choicePhaseStart	3	137	17	foodImage.31	FOODEEG_Images\0294.jpg	NY	Right	Yes	0.895566300023347	0	537070	253
1049.8515625	0	decision	response	3	137	17	foodImage.31	FOODEEG_Images\0294.jpg	NY	Right	Yes	0.895566300023347	0	537525	235
1050.89453125	1	health	trialStart	3	138	18	foodImage.70	FOODEEG_Images\0705.jpg	NY	Left	No	1.15318659995683	0	538059	251
1051.95703125	2	health	foodImageDisplay	3	138	18	foodImage.70	FOODEEG_Images\0705.jpg	NY	Left	No	1.15318659995683	0	538603	252
1054.021484375	1.15318659995683	health	choicePhaseStart	3	138	18	foodImage.70	FOODEEG_Images\0705.jpg	NY	Left	No	1.15318659995683	0	539660	253
1055.1640625	0	health	response	3	138	18	foodImage.70	FOODEEG_Images\0705.jpg	NY	Left	No	1.15318659995683	0	540245	234
1056.20703125	1	decision	trialStart	3	139	19	foodImage.48	FOODEEG_Images\0494.jpg	YN	Left	Yes	1.784313299926	0	540779	251
1057.24609375	2	decision	foodImageDisplay	3	139	19	foodImage.48	FOODEEG_Images\0494.jpg	YN	Left	Yes	1.784313299926	0	541311	252
1059.310546875	1.784313299926	decision	choicePhaseStart	3	139	19	foodImage.48	FOODEEG_Images\0494.jpg	YN	Left	Yes	1.784313299926	0	542368	253
1061.083984375	0	decision	response	3	139	19	foodImage.48	FOODEEG_Images\0494.jpg	YN	Left	Yes	1.784313299926	0	543276	234
1062.126953125	1	health	trialStart	3	140	20	foodImage.113	FOODEEG_Images\0921.jpg	YN	Left	Yes	1.56391619984061	0	543810	251
1063.16796875	2	health	foodImageDisplay	3	140	20	foodImage.113	FOODEEG_Images\0921.jpg	YN	Left	Yes	1.56391619984061	0	544343	252
1065.232421875	1.56391619984061	health	choicePhaseStart	3	140	20	foodImage.113	FOODEEG_Images\0921.jpg	YN	Left	Yes	1.56391619984061	0	545400	253
1066.787109375	0	health	response	3	140	20	foodImage.113	FOODEEG_Images\0921.jpg	YN	Left	Yes	1.56391619984061	0	546196	234
1067.83203125	1	taste	trialStart	3	141	21	foodImage.78	FOODEEG_Images\0787.jpg	NY	Right	Yes	0.553436200134456	0	546731	251
1068.876953125	2	taste	foodImageDisplay	3	141	21	foodImage.78	FOODEEG_Images\0787.jpg	NY	Right	Yes	0.553436200134456	0	547266	252
1070.939453125	0.553436200134456	taste	choicePhaseStart	3	141	21	foodImage.78	FOODEEG_Images\0787.jpg	NY	Right	Yes	0.553436200134456	0	548322	253
1071.482421875	0	taste	response	3	141	21	foodImage.78	FOODEEG_Images\0787.jpg	NY	Right	Yes	0.553436200134456	0	548600	235
1072.525390625	1	taste	trialStart	3	142	22	foodImage.105	FOODEEG_Images\0913.jpg	NY	Left	No	0.870076199993491	0	549134	251
1073.56640625	2	taste	foodImageDisplay	3	142	22	foodImage.105	FOODEEG_Images\0913.jpg	NY	Left	No	0.870076199993491	0	549667	252
1075.630859375	0.870076199993491	taste	choicePhaseStart	3	142	22	foodImage.105	FOODEEG_Images\0913.jpg	NY	Left	No	0.870076199993491	0	550724	253
1076.490234375	0	taste	response	3	142	22	foodImage.105	FOODEEG_Images\0913.jpg	NY	Left	No	0.870076199993491	0	551164	234
1077.53125	1	health	trialStart	3	143	23	foodImage.15	FOODEEG_Images\0189.jpg	NY	Left	No	0.917951199924573	0	551697	251
1078.59375	2	health	foodImageDisplay	3	143	23	foodImage.15	FOODEEG_Images\0189.jpg	NY	Left	No	0.917951199924573	0	552241	252
1080.662109375	0.917951199924573	health	choicePhaseStart	3	143	23	foodImage.15	FOODEEG_Images\0189.jpg	NY	Left	No	0.917951199924573	0	553300	253
1081.5703125	0	health	response	3	143	23	foodImage.15	FOODEEG_Images\0189.jpg	NY	Left	No	0.917951199924573	0	553765	234
1082.6171875	1	health	trialStart	3	144	24	foodImage.11	FOODEEG_Images\0180.jpg	NY	Right	Yes	1.0442625998985	0	554301	251
1083.6796875	2	health	foodImageDisplay	3	144	24	foodImage.11	FOODEEG_Images\0180.jpg	NY	Right	Yes	1.0442625998985	0	554845	252
1085.744140625	1.0442625998985	health	choicePhaseStart	3	144	24	foodImage.11	FOODEEG_Images\0180.jpg	NY	Right	Yes	1.0442625998985	0	555902	253
1086.779296875	0	health	response	3	144	24	foodImage.11	FOODEEG_Images\0180.jpg	NY	Right	Yes	1.0442625998985	0	556432	235
1087.822265625	1	taste	trialStart	3	145	25	foodImage.63	FOODEEG_Images\0645.jpg	YN	Left	Yes	0.810525899985805	0	556966	251
1088.865234375	2	taste	foodImageDisplay	3	145	25	foodImage.63	FOODEEG_Images\0645.jpg	YN	Left	Yes	0.810525899985805	0	557500	252
1090.9296875	0.810525899985805	taste	choicePhaseStart	3	145	25	foodImage.63	FOODEEG_Images\0645.jpg	YN	Left	Yes	0.810525899985805	0	558557	253
1091.73046875	0	taste	response	3	145	25	foodImage.63	FOODEEG_Images\0645.jpg	YN	Left	Yes	0.810525899985805	0	558967	234
1092.7734375	1	health	trialStart	3	146	26	foodImage.100	FOODEEG_Images\0908.jpg	YN	Right	No	2.15288599999622	0	559501	251
1093.810546875	2	health	foodImageDisplay	3	146	26	foodImage.100	FOODEEG_Images\0908.jpg	YN	Right	No	2.15288599999622	0	560032	252
1095.875	2.15288599999622	health	choicePhaseStart	3	146	26	foodImage.100	FOODEEG_Images\0908.jpg	YN	Right	No	2.15288599999622	0	561089	253
1098.017578125	0	health	response	3	146	26	foodImage.100	FOODEEG_Images\0908.jpg	YN	Right	No	2.15288599999622	0	562186	235
1099.0625	1	taste	trialStart	3	147	27	foodImage.69	FOODEEG_Images\0693.jpg	NY	Left	No	1.48907160013914	0	562721	251
1100.10546875	2	taste	foodImageDisplay	3	147	27	foodImage.69	FOODEEG_Images\0693.jpg	NY	Left	No	1.48907160013914	0	563255	252
1102.169921875	1.48907160013914	taste	choicePhaseStart	3	147	27	foodImage.69	FOODEEG_Images\0693.jpg	NY	Left	No	1.48907160013914	0	564312	253
1103.650390625	0	taste	response	3	147	27	foodImage.69	FOODEEG_Images\0693.jpg	NY	Left	No	1.48907160013914	0	565070	234
1104.693359375	1	taste	trialStart	3	148	28	foodImage.61	FOODEEG_Images\0640.jpg	YN	Right	No	1.06693809991702	0	565604	251
1105.736328125	2	taste	foodImageDisplay	3	148	28	foodImage.61	FOODEEG_Images\0640.jpg	YN	Right	No	1.06693809991702	0	566138	252
1107.798828125	1.06693809991702	taste	choicePhaseStart	3	148	28	foodImage.61	FOODEEG_Images\0640.jpg	YN	Right	No	1.06693809991702	0	567194	253
1108.857421875	0	taste	response	3	148	28	foodImage.61	FOODEEG_Images\0640.jpg	YN	Right	No	1.06693809991702	0	567736	235
1109.900390625	1	health	trialStart	3	149	29	foodImage.8	FOODEEG_Images\0136.jpg	NY	Left	No	0.73682410013862	0	568270	251
1110.947265625	2	health	foodImageDisplay	3	149	29	foodImage.8	FOODEEG_Images\0136.jpg	NY	Left	No	0.73682410013862	0	568806	252
1113.009765625	0.73682410013862	health	choicePhaseStart	3	149	29	foodImage.8	FOODEEG_Images\0136.jpg	NY	Left	No	0.73682410013862	0	569862	253
1113.73828125	0	health	response	3	149	29	foodImage.8	FOODEEG_Images\0136.jpg	NY	Left	No	0.73682410013862	0	570235	234
1114.78125	1	decision	trialStart	3	150	30	foodImage.30	FOODEEG_Images\0282.jpg	NY	Right	Yes	0.80419970001094	0	570769	251
1115.822265625	2	decision	foodImageDisplay	3	150	30	foodImage.30	FOODEEG_Images\0282.jpg	NY	Right	Yes	0.80419970001094	0	571302	252
1117.88671875	0.80419970001094	decision	choicePhaseStart	3	150	30	foodImage.30	FOODEEG_Images\0282.jpg	NY	Right	Yes	0.80419970001094	0	572359	253
1118.681640625	0	decision	response	3	150	30	foodImage.30	FOODEEG_Images\0282.jpg	NY	Right	Yes	0.80419970001094	0	572766	235
1119.724609375	1	health	trialStart	3	151	31	foodImage.12	FOODEEG_Images\0181.jpg	NY	Right	Yes	0.980728800175712	0	573300	251
1120.763671875	2	health	foodImageDisplay	3	151	31	foodImage.12	FOODEEG_Images\0181.jpg	NY	Right	Yes	0.980728800175712	0	573832	252
1122.830078125	0.980728800175712	health	choicePhaseStart	3	151	31	foodImage.12	FOODEEG_Images\0181.jpg	NY	Right	Yes	0.980728800175712	0	574890	253
1123.80078125	0	health	response	3	151	31	foodImage.12	FOODEEG_Images\0181.jpg	NY	Right	Yes	0.980728800175712	0	575387	235
1124.84375	1	decision	trialStart	3	152	32	foodImage.7	FOODEEG_Images\0116.jpg	NY	Right	Yes	0.530965300044045	0	575921	251
1125.88671875	2	decision	foodImageDisplay	3	152	32	foodImage.7	FOODEEG_Images\0116.jpg	NY	Right	Yes	0.530965300044045	0	576455	252
1127.951171875	0.530965300044045	decision	choicePhaseStart	3	152	32	foodImage.7	FOODEEG_Images\0116.jpg	NY	Right	Yes	0.530965300044045	0	577512	253
1128.47265625	0	decision	response	3	152	32	foodImage.7	FOODEEG_Images\0116.jpg	NY	Right	Yes	0.530965300044045	0	577779	235
1129.517578125	1	taste	trialStart	3	153	33	foodImage.88	FOODEEG_Images\0878.jpg	NY	Right	Yes	0.986213200027123	0	578314	251
1130.583984375	2	taste	foodImageDisplay	3	153	33	foodImage.88	FOODEEG_Images\0878.jpg	NY	Right	Yes	0.986213200027123	0	578860	252
1132.6484375	0.986213200027123	taste	choicePhaseStart	3	153	33	foodImage.88	FOODEEG_Images\0878.jpg	NY	Right	Yes	0.986213200027123	0	579917	253
1133.625	0	taste	response	3	153	33	foodImage.88	FOODEEG_Images\0878.jpg	NY	Right	Yes	0.986213200027123	0	580417	235
1134.66796875	1	health	trialStart	3	154	34	foodImage.96	FOODEEG_Images\0904.jpg	YN	Right	No	0.693435700144619	0	580951	251
1135.70703125	2	health	foodImageDisplay	3	154	34	foodImage.96	FOODEEG_Images\0904.jpg	YN	Right	No	0.693435700144619	0	581483	252
1137.771484375	0.693435700144619	health	choicePhaseStart	3	154	34	foodImage.96	FOODEEG_Images\0904.jpg	YN	Right	No	0.693435700144619	0	582540	253
1138.45703125	0	health	response	3	154	34	foodImage.96	FOODEEG_Images\0904.jpg	YN	Right	No	0.693435700144619	0	582891	235
1139.5	1	decision	trialStart	3	155	35	foodImage.79	FOODEEG_Images\0794.jpg	YN	Right	No	0.864256599918008	0	583425	251
1140.544921875	2	decision	foodImageDisplay	3	155	35	foodImage.79	FOODEEG_Images\0794.jpg	YN	Right	No	0.864256599918008	0	583960	252
1142.609375	0.864256599918008	decision	choicePhaseStart	3	155	35	foodImage.79	FOODEEG_Images\0794.jpg	YN	Right	No	0.864256599918008	0	585017	253
1143.46484375	0	decision	response	3	155	35	foodImage.79	FOODEEG_Images\0794.jpg	YN	Right	No	0.864256599918008	0	585455	235
1144.5078125	1	decision	trialStart	3	156	36	foodImage.53	FOODEEG_Images\0547.jpg	NY	Right	Yes	0.87732580001466	0	585989	251
1145.564453125	2	decision	foodImageDisplay	3	156	36	foodImage.53	FOODEEG_Images\0547.jpg	NY	Right	Yes	0.87732580001466	0	586530	252
1147.62890625	0.87732580001466	decision	choicePhaseStart	3	156	36	foodImage.53	FOODEEG_Images\0547.jpg	NY	Right	Yes	0.87732580001466	0	587587	253
1148.49609375	0	decision	response	3	156	36	foodImage.53	FOODEEG_Images\0547.jpg	NY	Right	Yes	0.87732580001466	0	588031	235
1149.5390625	1	taste	trialStart	3	157	37	foodImage.74	FOODEEG_Images\0752.jpg	NY	Right	Yes	1.5132983000949	0	588565	251
1150.583984375	2	taste	foodImageDisplay	3	157	37	foodImage.74	FOODEEG_Images\0752.jpg	NY	Right	Yes	1.5132983000949	0	589100	252
1152.6484375	1.5132983000949	taste	choicePhaseStart	3	157	37	foodImage.74	FOODEEG_Images\0752.jpg	NY	Right	Yes	1.5132983000949	0	590157	253
1154.15234375	0	taste	response	3	157	37	foodImage.74	FOODEEG_Images\0752.jpg	NY	Right	Yes	1.5132983000949	0	590927	235
1155.1953125	1	decision	trialStart	3	158	38	foodImage.118	FOODEEG_Images\0926.jpg	YN	Left	Yes	0.950510099995881	0	591461	251
1156.236328125	2	decision	foodImageDisplay	3	158	38	foodImage.118	FOODEEG_Images\0926.jpg	YN	Left	Yes	0.950510099995881	0	591994	252
1158.298828125	0.950510099995881	decision	choicePhaseStart	3	158	38	foodImage.118	FOODEEG_Images\0926.jpg	YN	Left	Yes	0.950510099995881	0	593050	253
1159.240234375	0	decision	response	3	158	38	foodImage.118	FOODEEG_Images\0926.jpg	YN	Left	Yes	0.950510099995881	0	593532	234
1160.28125	1	decision	trialStart	3	159	39	foodImage.33	FOODEEG_Images\0329.jpg	NY	Right	Yes	0.69180370005779	0	594065	251
1161.32421875	2	decision	foodImageDisplay	3	159	39	foodImage.33	FOODEEG_Images\0329.jpg	NY	Right	Yes	0.69180370005779	0	594599	252
1163.38671875	0.69180370005779	decision	choicePhaseStart	3	159	39	foodImage.33	FOODEEG_Images\0329.jpg	NY	Right	Yes	0.69180370005779	0	595655	253
1164.072265625	0	decision	response	3	159	39	foodImage.33	FOODEEG_Images\0329.jpg	NY	Right	Yes	0.69180370005779	0	596006	235
1165.111328125	1	taste	trialStart	3	160	40	foodImage.56	FOODEEG_Images\0586.jpg	YN	Left	Yes	2.33235000004061	0	596538	251
1166.15625	2	taste	foodImageDisplay	3	160	40	foodImage.56	FOODEEG_Images\0586.jpg	YN	Left	Yes	2.33235000004061	0	597073	252
1168.220703125	2.33235000004061	taste	choicePhaseStart	3	160	40	foodImage.56	FOODEEG_Images\0586.jpg	YN	Left	Yes	2.33235000004061	0	598130	253
1170.54296875	0	taste	response	3	160	40	foodImage.56	FOODEEG_Images\0586.jpg	YN	Left	Yes	2.33235000004061	0	599319	234
1171.5859375	1	health	trialStart	3	161	41	foodImage.24	FOODEEG_Images\0250.jpg	YN	Left	Yes	0.676573199918494	0	599853	251
1172.62890625	2	health	foodImageDisplay	3	161	41	foodImage.24	FOODEEG_Images\0250.jpg	YN	Left	Yes	0.676573199918494	0	600387	252
1174.69140625	0.676573199918494	health	choicePhaseStart	3	161	41	foodImage.24	FOODEEG_Images\0250.jpg	YN	Left	Yes	0.676573199918494	0	601443	253
1175.359375	0	health	response	3	161	41	foodImage.24	FOODEEG_Images\0250.jpg	YN	Left	Yes	0.676573199918494	0	601785	234
1176.40234375	1	taste	trialStart	3	162	42	foodImage.38	FOODEEG_Images\0365.jpg	YN	Left	Yes	0.535780400037766	0	602319	251
1177.44140625	2	taste	foodImageDisplay	3	162	42	foodImage.38	FOODEEG_Images\0365.jpg	YN	Left	Yes	0.535780400037766	0	602851	252
1179.509765625	0.535780400037766	taste	choicePhaseStart	3	162	42	foodImage.38	FOODEEG_Images\0365.jpg	YN	Left	Yes	0.535780400037766	0	603910	253
1180.0390625	0	taste	response	3	162	42	foodImage.38	FOODEEG_Images\0365.jpg	YN	Left	Yes	0.535780400037766	0	604181	234
1181.083984375	1	taste	trialStart	3	163	43	foodImage.5	FOODEEG_Images\0107.jpg	YN	Left	Yes	0.692374899983406	0	604716	251
1182.150390625	2	taste	foodImageDisplay	3	163	43	foodImage.5	FOODEEG_Images\0107.jpg	YN	Left	Yes	0.692374899983406	0	605262	252
1184.212890625	0.692374899983406	taste	choicePhaseStart	3	163	43	foodImage.5	FOODEEG_Images\0107.jpg	YN	Left	Yes	0.692374899983406	0	606318	253
1184.89453125	0	taste	response	3	163	43	foodImage.5	FOODEEG_Images\0107.jpg	YN	Left	Yes	0.692374899983406	0	606667	234
1185.939453125	1	health	trialStart	3	164	44	foodImage.68	FOODEEG_Images\0685.jpg	NY	Right	Yes	0.6150547999423	0	607202	251
1187.02734375	2	health	foodImageDisplay	3	164	44	foodImage.68	FOODEEG_Images\0685.jpg	NY	Right	Yes	0.6150547999423	0	607759	252
1189.08984375	0.6150547999423	health	choicePhaseStart	3	164	44	foodImage.68	FOODEEG_Images\0685.jpg	NY	Right	Yes	0.6150547999423	0	608815	253
1189.6953125	0	health	response	3	164	44	foodImage.68	FOODEEG_Images\0685.jpg	NY	Right	Yes	0.6150547999423	0	609125	235
1190.7421875	1	decision	trialStart	3	165	45	foodImage.10	FOODEEG_Images\0145.jpg	YN	Left	Yes	1.00669969990849	0	609661	251
1191.80078125	2	decision	foodImageDisplay	3	165	45	foodImage.10	FOODEEG_Images\0145.jpg	YN	Left	Yes	1.00669969990849	0	610203	252
1193.865234375	1.00669969990849	decision	choicePhaseStart	3	165	45	foodImage.10	FOODEEG_Images\0145.jpg	YN	Left	Yes	1.00669969990849	0	611260	253
1194.861328125	0	decision	response	3	165	45	foodImage.10	FOODEEG_Images\0145.jpg	YN	Left	Yes	1.00669969990849	0	611770	234
1195.904296875	1	decision	trialStart	3	166	46	foodImage.96	FOODEEG_Images\0904.jpg	YN	Right	No	1.6794324000366	0	612304	251
1196.9453125	2	decision	foodImageDisplay	3	166	46	foodImage.96	FOODEEG_Images\0904.jpg	YN	Right	No	1.6794324000366	0	612837	252
1199.0078125	1.6794324000366	decision	choicePhaseStart	3	166	46	foodImage.96	FOODEEG_Images\0904.jpg	YN	Right	No	1.6794324000366	0	613893	253
1200.677734375	0	decision	response	3	166	46	foodImage.96	FOODEEG_Images\0904.jpg	YN	Right	No	1.6794324000366	0	614748	235
1201.720703125	1	taste	trialStart	3	167	47	foodImage.108	FOODEEG_Images\0916.jpg	YN	Right	No	0.510708099929616	0	615282	251
1202.759765625	2	taste	foodImageDisplay	3	167	47	foodImage.108	FOODEEG_Images\0916.jpg	YN	Right	No	0.510708099929616	0	615814	252
1204.82421875	0.510708099929616	taste	choicePhaseStart	3	167	47	foodImage.108	FOODEEG_Images\0916.jpg	YN	Right	No	0.510708099929616	0	616871	253
1205.326171875	0	taste	response	3	167	47	foodImage.108	FOODEEG_Images\0916.jpg	YN	Right	No	0.510708099929616	0	617128	235
1206.369140625	1	decision	trialStart	3	168	48	foodImage.74	FOODEEG_Images\0752.jpg	YN	Left	Yes	0.635518899885938	0	617662	251
1207.4140625	2	decision	foodImageDisplay	3	168	48	foodImage.74	FOODEEG_Images\0752.jpg	YN	Left	Yes	0.635518899885938	0	618197	252
1209.4765625	0.635518899885938	decision	choicePhaseStart	3	168	48	foodImage.74	FOODEEG_Images\0752.jpg	YN	Left	Yes	0.635518899885938	0	619253	253
1210.1015625	0	decision	response	3	168	48	foodImage.74	FOODEEG_Images\0752.jpg	YN	Left	Yes	0.635518899885938	0	619573	234
1211.14453125	1	taste	trialStart	3	169	49	foodImage.45	FOODEEG_Images\0478.jpg	NY	Right	Yes	0.759819000028074	0	620107	251
1212.19140625	2	taste	foodImageDisplay	3	169	49	foodImage.45	FOODEEG_Images\0478.jpg	NY	Right	Yes	0.759819000028074	0	620643	252
1214.255859375	0.759819000028074	taste	choicePhaseStart	3	169	49	foodImage.45	FOODEEG_Images\0478.jpg	NY	Right	Yes	0.759819000028074	0	621700	253
1215.005859375	0	taste	response	3	169	49	foodImage.45	FOODEEG_Images\0478.jpg	NY	Right	Yes	0.759819000028074	0	622084	235
1216.048828125	1	taste	trialStart	3	170	50	foodImage.93	FOODEEG_Images\0901.jpg	YN	Right	No	0.717961199814454	0	622618	251
1217.087890625	2	taste	foodImageDisplay	3	170	50	foodImage.93	FOODEEG_Images\0901.jpg	YN	Right	No	0.717961199814454	0	623150	252
1219.15234375	0.717961199814454	taste	choicePhaseStart	3	170	50	foodImage.93	FOODEEG_Images\0901.jpg	YN	Right	No	0.717961199814454	0	624207	253
1219.861328125	0	taste	response	3	170	50	foodImage.93	FOODEEG_Images\0901.jpg	YN	Right	No	0.717961199814454	0	624570	235
1220.90625	1	decision	trialStart	3	171	51	foodImage.1	FOODEEG_Images\0004.jpg	NY	Right	Yes	0.543477699859068	0	625105	251
1221.951171875	2	decision	foodImageDisplay	3	171	51	foodImage.1	FOODEEG_Images\0004.jpg	NY	Right	Yes	0.543477699859068	0	625640	252
1224.015625	0.543477699859068	decision	choicePhaseStart	3	171	51	foodImage.1	FOODEEG_Images\0004.jpg	NY	Right	Yes	0.543477699859068	0	626697	253
1224.548828125	0	decision	response	3	171	51	foodImage.1	FOODEEG_Images\0004.jpg	NY	Right	Yes	0.543477699859068	0	626970	235
1225.591796875	1	health	trialStart	3	172	52	foodImage.103	FOODEEG_Images\0911.jpg	YN	Right	No	0.626902599819005	0	627504	251
1226.6328125	2	health	foodImageDisplay	3	172	52	foodImage.103	FOODEEG_Images\0911.jpg	YN	Right	No	0.626902599819005	0	628037	252
1228.697265625	0.626902599819005	health	choicePhaseStart	3	172	52	foodImage.103	FOODEEG_Images\0911.jpg	YN	Right	No	0.626902599819005	0	629094	253
1229.31640625	0	health	response	3	172	52	foodImage.103	FOODEEG_Images\0911.jpg	YN	Right	No	0.626902599819005	0	629411	235
1230.361328125	1	decision	trialStart	3	173	53	foodImage.83	FOODEEG_Images\0827.jpg	YN	Right	No	0.874349000165239	0	629946	251
1231.41796875	2	decision	foodImageDisplay	3	173	53	foodImage.83	FOODEEG_Images\0827.jpg	YN	Right	No	0.874349000165239	0	630487	252
1233.48046875	0.874349000165239	decision	choicePhaseStart	3	173	53	foodImage.83	FOODEEG_Images\0827.jpg	YN	Right	No	0.874349000165239	0	631543	253
1234.349609375	0	decision	response	3	173	53	foodImage.83	FOODEEG_Images\0827.jpg	YN	Right	No	0.874349000165239	0	631988	235
1235.390625	1	decision	trialStart	3	174	54	foodImage.56	FOODEEG_Images\0586.jpg	NY	Right	Yes	0.71124879992567	0	632521	251
1236.431640625	2	decision	foodImageDisplay	3	174	54	foodImage.56	FOODEEG_Images\0586.jpg	NY	Right	Yes	0.71124879992567	0	633054	252
1238.494140625	0.71124879992567	decision	choicePhaseStart	3	174	54	foodImage.56	FOODEEG_Images\0586.jpg	NY	Right	Yes	0.71124879992567	0	634110	253
1239.197265625	0	decision	response	3	174	54	foodImage.56	FOODEEG_Images\0586.jpg	NY	Right	Yes	0.71124879992567	0	634470	235
1240.240234375	1	taste	trialStart	3	175	55	foodImage.51	FOODEEG_Images\0536.jpg	NY	Right	Yes	0.56543490011245	0	635004	251
1241.287109375	2	taste	foodImageDisplay	3	175	55	foodImage.51	FOODEEG_Images\0536.jpg	NY	Right	Yes	0.56543490011245	0	635540	252
1243.3515625	0.56543490011245	taste	choicePhaseStart	3	175	55	foodImage.51	FOODEEG_Images\0536.jpg	NY	Right	Yes	0.56543490011245	0	636597	253
1243.908203125	0	taste	response	3	175	55	foodImage.51	FOODEEG_Images\0536.jpg	NY	Right	Yes	0.56543490011245	0	636882	235
1244.955078125	1	decision	trialStart	3	176	56	foodImage.98	FOODEEG_Images\0906.jpg	NY	Left	No	0.65022059995681	0	637418	251
1245.994140625	2	decision	foodImageDisplay	3	176	56	foodImage.98	FOODEEG_Images\0906.jpg	NY	Left	No	0.65022059995681	0	637950	252
1248.05859375	0.65022059995681	decision	choicePhaseStart	3	176	56	foodImage.98	FOODEEG_Images\0906.jpg	NY	Left	No	0.65022059995681	0	639007	253
1248.701171875	0	decision	response	3	176	56	foodImage.98	FOODEEG_Images\0906.jpg	NY	Left	No	0.65022059995681	0	639336	234
1249.7421875	1	decision	trialStart	3	177	57	foodImage.62	FOODEEG_Images\0644.jpg	YN	Right	No	0.665838200133294	0	639869	251
1250.8046875	2	decision	foodImageDisplay	3	177	57	foodImage.62	FOODEEG_Images\0644.jpg	YN	Right	No	0.665838200133294	0	640413	252
1252.8671875	0.665838200133294	decision	choicePhaseStart	3	177	57	foodImage.62	FOODEEG_Images\0644.jpg	YN	Right	No	0.665838200133294	0	641469	253
1253.5234375	0	decision	response	3	177	57	foodImage.62	FOODEEG_Images\0644.jpg	YN	Right	No	0.665838200133294	0	641805	235
1254.5703125	1	health	trialStart	3	178	58	foodImage.106	FOODEEG_Images\0914.jpg	NY	Left	No	1.15818200004287	0	642341	251
1255.607421875	2	health	foodImageDisplay	3	178	58	foodImage.106	FOODEEG_Images\0914.jpg	NY	Left	No	1.15818200004287	0	642872	252
1257.671875	1.15818200004287	health	choicePhaseStart	3	178	58	foodImage.106	FOODEEG_Images\0914.jpg	NY	Left	No	1.15818200004287	0	643929	253
1258.8203125	0	health	response	3	178	58	foodImage.106	FOODEEG_Images\0914.jpg	NY	Left	No	1.15818200004287	0	644517	234
1259.86328125	1	decision	trialStart	3	179	59	foodImage.113	FOODEEG_Images\0921.jpg	NY	Right	Yes	0.76003329991363	0	645051	251
1260.90234375	2	decision	foodImageDisplay	3	179	59	foodImage.113	FOODEEG_Images\0921.jpg	NY	Right	Yes	0.76003329991363	0	645583	252
1262.96484375	0.76003329991363	decision	choicePhaseStart	3	179	59	foodImage.113	FOODEEG_Images\0921.jpg	NY	Right	Yes	0.76003329991363	0	646639	253
1263.716796875	0	decision	response	3	179	59	foodImage.113	FOODEEG_Images\0921.jpg	NY	Right	Yes	0.76003329991363	0	647024	235
1264.7578125	1	decision	trialStart	3	180	60	foodImage.101	FOODEEG_Images\0909.jpg	YN	Right	No	0.461222300073132	0	647557	251
1265.796875	2	decision	foodImageDisplay	3	180	60	foodImage.101	FOODEEG_Images\0909.jpg	YN	Right	No	0.461222300073132	0	648089	252
1267.859375	0.461222300073132	decision	choicePhaseStart	3	180	60	foodImage.101	FOODEEG_Images\0909.jpg	YN	Right	No	0.461222300073132	0	649145	253
1268.31640625	0	decision	response	3	180	60	foodImage.101	FOODEEG_Images\0909.jpg	YN	Right	No	0.461222300073132	0	649379	235
1270.35546875	1.466796875	n/a	blockEnd	n/a	n/a	n/a	n/a	n/a	n/a	n/a	n/a	n/a	n/a	650423	254
1271.822265625	2	n/a	blockStart	4	n/a	n/a	n/a	n/a	n/a	n/a	n/a	n/a	n/a	651174	250
1273.85546875	1	health	trialStart	4	181	1	foodImage.78	FOODEEG_Images\0787.jpg	YN	Left	Yes	0.880307000130415	0	652215	251
1274.900390625	2	health	foodImageDisplay	4	181	1	foodImage.78	FOODEEG_Images\0787.jpg	YN	Left	Yes	0.880307000130415	0	652750	252
1276.96484375	0.880307000130415	health	choicePhaseStart	4	181	1	foodImage.78	FOODEEG_Images\0787.jpg	YN	Left	Yes	0.880307000130415	0	653807	253
1277.8359375	0	health	response	4	181	1	foodImage.78	FOODEEG_Images\0787.jpg	YN	Left	Yes	0.880307000130415	0	654253	234
1278.876953125	1	decision	trialStart	4	182	2	foodImage.51	FOODEEG_Images\0536.jpg	YN	Left	Yes	0.710710900137201	0	654786	251
1279.923828125	2	decision	foodImageDisplay	4	182	2	foodImage.51	FOODEEG_Images\0536.jpg	YN	Left	Yes	0.710710900137201	0	655322	252
1281.98828125	0.710710900137201	decision	choicePhaseStart	4	182	2	foodImage.51	FOODEEG_Images\0536.jpg	YN	Left	Yes	0.710710900137201	0	656379	253
1282.69140625	0	decision	response	4	182	2	foodImage.51	FOODEEG_Images\0536.jpg	YN	Left	Yes	0.710710900137201	0	656739	234
1283.734375	1	health	trialStart	4	183	3	foodImage.62	FOODEEG_Images\0644.jpg	YN	Left	Yes	0.868524899939075	0	657273	251
1284.79296875	2	health	foodImageDisplay	4	183	3	foodImage.62	FOODEEG_Images\0644.jpg	YN	Left	Yes	0.868524899939075	0	657815	252
1286.85546875	0.868524899939075	health	choicePhaseStart	4	183	3	foodImage.62	FOODEEG_Images\0644.jpg	YN	Left	Yes	0.868524899939075	0	658871	253
1287.71484375	0	health	response	4	183	3	foodImage.62	FOODEEG_Images\0644.jpg	YN	Left	Yes	0.868524899939075	0	659311	234
1288.76171875	1	decision	trialStart	4	184	4	foodImage.42	FOODEEG_Images\0438.jpg	YN	Right	No	1.0750825998839	0	659847	251
1289.849609375	2	decision	foodImageDisplay	4	184	4	foodImage.42	FOODEEG_Images\0438.jpg	YN	Right	No	1.0750825998839	0	660404	252
1291.912109375	1.0750825998839	decision	choicePhaseStart	4	184	4	foodImage.42	FOODEEG_Images\0438.jpg	YN	Right	No	1.0750825998839	0	661460	253
1292.978515625	0	decision	response	4	184	4	foodImage.42	FOODEEG_Images\0438.jpg	YN	Right	No	1.0750825998839	0	662006	235
1294.01953125	1	decision	trialStart	4	185	5	foodImage.19	FOODEEG_Images\0225.jpg	YN	Right	No	1.24492790014483	0	662539	251
1295.080078125	2	decision	foodImageDisplay	4	185	5	foodImage.19	FOODEEG_Images\0225.jpg	YN	Right	No	1.24492790014483	0	663082	252
1297.142578125	1.24492790014483	decision	choicePhaseStart	4	185	5	foodImage.19	FOODEEG_Images\0225.jpg	YN	Right	No	1.24492790014483	0	664138	253
1298.37890625	0	decision	response	4	185	5	foodImage.19	FOODEEG_Images\0225.jpg	YN	Right	No	1.24492790014483	0	664771	235
1299.421875	1	taste	trialStart	4	186	6	foodImage.64	FOODEEG_Images\0647.jpg	NY	Left	No	1.05016770004295	0	665305	251
1300.48046875	2	taste	foodImageDisplay	4	186	6	foodImage.64	FOODEEG_Images\0647.jpg	NY	Left	No	1.05016770004295	0	665847	252
1302.544921875	1.05016770004295	taste	choicePhaseStart	4	186	6	foodImage.64	FOODEEG_Images\0647.jpg	NY	Left	No	1.05016770004295	0	666904	253
1303.5859375	0	taste	response	4	186	6	foodImage.64	FOODEEG_Images\0647.jpg	NY	Left	No	1.05016770004295	0	667437	234
1304.62890625	1	health	trialStart	4	187	7	foodImage.29	FOODEEG_Images\0278.jpg	YN	Right	No	0.595056199934334	0	667971	251
1305.671875	2	health	foodImageDisplay	4	187	7	foodImage.29	FOODEEG_Images\0278.jpg	YN	Right	No	0.595056199934334	0	668505	252
1307.736328125	0.595056199934334	health	choicePhaseStart	4	187	7	foodImage.29	FOODEEG_Images\0278.jpg	YN	Right	No	0.595056199934334	0	669562	253
1308.322265625	0	health	response	4	187	7	foodImage.29	FOODEEG_Images\0278.jpg	YN	Right	No	0.595056199934334	0	669862	235
1309.3671875	1	decision	trialStart	4	188	8	foodImage.71	FOODEEG_Images\0713.jpg	NY	Right	Yes	0.613874899921939	0	670397	251
1310.41015625	2	decision	foodImageDisplay	4	188	8	foodImage.71	FOODEEG_Images\0713.jpg	NY	Right	Yes	0.613874899921939	0	670931	252
1312.4765625	0.613874899921939	decision	choicePhaseStart	4	188	8	foodImage.71	FOODEEG_Images\0713.jpg	NY	Right	Yes	0.613874899921939	0	671989	253
1313.08203125	0	decision	response	4	188	8	foodImage.71	FOODEEG_Images\0713.jpg	NY	Right	Yes	0.613874899921939	0	672299	235
1314.125	1	decision	trialStart	4	189	9	foodImage.99	FOODEEG_Images\0907.jpg	YN	Right	No	0.574575399979949	0	672833	251
1315.1640625	2	decision	foodImageDisplay	4	189	9	foodImage.99	FOODEEG_Images\0907.jpg	YN	Right	No	0.574575399979949	0	673365	252
1317.228515625	0.574575399979949	decision	choicePhaseStart	4	189	9	foodImage.99	FOODEEG_Images\0907.jpg	YN	Right	No	0.574575399979949	0	674422	253
1317.79296875	0	decision	response	4	189	9	foodImage.99	FOODEEG_Images\0907.jpg	YN	Right	No	0.574575399979949	0	674711	235
1318.8359375	1	taste	trialStart	4	190	10	foodImage.22	FOODEEG_Images\0236.jpg	NY	Right	Yes	1.23305230005644	0	675245	251
1319.8828125	2	taste	foodImageDisplay	4	190	10	foodImage.22	FOODEEG_Images\0236.jpg	NY	Right	Yes	1.23305230005644	0	675781	252
1321.9453125	1.23305230005644	taste	choicePhaseStart	4	190	10	foodImage.22	FOODEEG_Images\0236.jpg	NY	Right	Yes	1.23305230005644	0	676837	253
1323.169921875	0	taste	response	4	190	10	foodImage.22	FOODEEG_Images\0236.jpg	NY	Right	Yes	1.23305230005644	0	677464	235
1324.216796875	1	taste	trialStart	4	191	11	foodImage.80	FOODEEG_Images\0796.jpg	NY	Right	Yes	0.571739200036973	0	678000	251
1325.27734375	2	taste	foodImageDisplay	4	191	11	foodImage.80	FOODEEG_Images\0796.jpg	NY	Right	Yes	0.571739200036973	0	678543	252
1327.33984375	0.571739200036973	taste	choicePhaseStart	4	191	11	foodImage.80	FOODEEG_Images\0796.jpg	NY	Right	Yes	0.571739200036973	0	679599	253
1327.90625	0	taste	response	4	191	11	foodImage.80	FOODEEG_Images\0796.jpg	NY	Right	Yes	0.571739200036973	0	679889	235
1328.94921875	1	health	trialStart	4	192	12	foodImage.7	FOODEEG_Images\0116.jpg	NY	Left	No	0.674477499909699	0	680423	251
1329.98828125	2	health	foodImageDisplay	4	192	12	foodImage.7	FOODEEG_Images\0116.jpg	NY	Left	No	0.674477499909699	0	680955	252
1332.052734375	0.674477499909699	health	choicePhaseStart	4	192	12	foodImage.7	FOODEEG_Images\0116.jpg	NY	Left	No	0.674477499909699	0	682012	253
1332.720703125	0	health	response	4	192	12	foodImage.7	FOODEEG_Images\0116.jpg	NY	Left	No	0.674477499909699	0	682354	234
