onset	duration	trial_type	event_type	block	trial_total	trial_in_block	food_image_code	food_image_path	button_position	resp_position	resp_choice	choice_rt	resp_too_slow	sample	trigger
315	2	n/a	blockStart	1	n/a	n/a	n/a	n/a	n/a	n/a	n/a	n/a	n/a	161281	250
317.041015625	1	decision	trialStart	1	1	1	foodImage.53	FOODEEG_Images\0547.jpg	NY	Left	No	0.859355200009304	0	162326	251
318.103515625	2	decision	foodImageDisplay	1	1	1	foodImage.53	FOODEEG_Images\0547.jpg	NY	Left	No	0.859355200009304	0	162870	252
320.16796875	0.859355200009304	decision	choicePhaseStart	1	1	1	foodImage.53	FOODEEG_Images\0547.jpg	NY	Left	No	0.859355200009304	0	163927	253
321.01953125	0	decision	response	1	1	1	foodImage.53	FOODEEG_Images\0547.jpg	NY	Left	No	0.859355200009304	0	164363	234
322.115234375	1	decision	trialStart	1	2	2	foodImage.50	FOODEEG_Images\0529.jpg	NY	Left	No	1.20866150000074	0	164924	251
323.177734375	2	decision	foodImageDisplay	1	2	2	foodImage.50	FOODEEG_Images\0529.jpg	NY	Left	No	1.20866150000074	0	165468	252
325.2421875	1.20866150000074	decision	choicePhaseStart	1	2	2	foodImage.50	FOODEEG_Images\0529.jpg	NY	Left	No	1.20866150000074	0	166525	253
326.443359375	0	decision	response	1	2	2	foodImage.50	FOODEEG_Images\0529.jpg	NY	Left	No	1.20866150000074	0	167140	234
327.498046875	1	decision	trialStart	1	3	3	foodImage.70	FOODEEG_Images\0705.jpg	YN	Left	Yes	0.767277500010096	0	167680	251
328.5546875	2	decision	foodImageDisplay	1	3	3	foodImage.70	FOODEEG_Images\0705.jpg	YN	Left	Yes	0.767277500010096	0	168221	252
330.619140625	0.767277500010096	decision	choicePhaseStart	1	3	3	foodImage.70	FOODEEG_Images\0705.jpg	YN	Left	Yes	0.767277500010096	0	169278	253
331.376953125	0	decision	response	1	3	3	foodImage.70	FOODEEG_Images\0705.jpg	YN	Left	Yes	0.767277500010096	0	169666	234
332.423828125	1	decision	trialStart	1	4	4	foodImage.21	FOODEEG_Images\0234.jpg	NY	Right	Yes	0.939312500006054	0	170202	251
333.48046875	2	decision	foodImageDisplay	1	4	4	foodImage.21	FOODEEG_Images\0234.jpg	NY	Right	Yes	0.939312500006054	0	170743	252
335.54296875	0.939312500006054	decision	choicePhaseStart	1	4	4	foodImage.21	FOODEEG_Images\0234.jpg	NY	Right	Yes	0.939312500006054	0	171799	253
336.474609375	0	decision	response	1	4	4	foodImage.21	FOODEEG_Images\0234.jpg	NY	Right	Yes	0.939312500006054	0	172276	235
337.51953125	1	taste	trialStart	1	5	5	foodImage.73	FOODEEG_Images\0717.jpg	YN	Left	Yes	1.46647749999829	0	172811	251
338.578125	2	taste	foodImageDisplay	1	5	5	foodImage.73	FOODEEG_Images\0717.jpg	YN	Left	Yes	1.46647749999829	0	173353	252
340.64453125	1.46647749999829	taste	choicePhaseStart	1	5	5	foodImage.73	FOODEEG_Images\0717.jpg	YN	Left	Yes	1.46647749999829	0	174411	253
342.10546875	0	taste	response	1	5	5	foodImage.73	FOODEEG_Images\0717.jpg	YN	Left	Yes	1.46647749999829	0	175159	234
343.154296875	1	health	trialStart	1	6	6	foodImage.113	FOODEEG_Images\0921.jpg	YN	Left	Yes	1.62105030000384	0	175696	251
344.201171875	2	health	foodImageDisplay	1	6	6	foodImage.113	FOODEEG_Images\0921.jpg	YN	Left	Yes	1.62105030000384	0	176232	252
346.265625	1.62105030000384	health	choicePhaseStart	1	6	6	foodImage.113	FOODEEG_Images\0921.jpg	YN	Left	Yes	1.62105030000384	0	177289	253
347.880859375	0	health	response	1	6	6	foodImage.113	FOODEEG_Images\0921.jpg	YN	Left	Yes	1.62105030000384	0	178116	234
348.92578125	1	decision	trialStart	1	7	7	foodImage.43	FOODEEG_Images\0445.jpg	NY	Left	No	1.38548929999524	0	178651	251
349.982421875	2	decision	foodImageDisplay	1	7	7	foodImage.43	FOODEEG_Images\0445.jpg	NY	Left	No	1.38548929999524	0	179192	252
352.046875	1.38548929999524	decision	choicePhaseStart	1	7	7	foodImage.43	FOODEEG_Images\0445.jpg	NY	Left	No	1.38548929999524	0	180249	253
353.42578125	0	decision	response	1	7	7	foodImage.43	FOODEEG_Images\0445.jpg	NY	Left	No	1.38548929999524	0	180955	234
354.466796875	1	taste	trialStart	1	8	8	foodImage.80	FOODEEG_Images\0796.jpg	NY	Right	Yes	0.866597499989439	0	181488	251
355.5234375	2	taste	foodImageDisplay	1	8	8	foodImage.80	FOODEEG_Images\0796.jpg	NY	Right	Yes	0.866597499989439	0	182029	252
357.58984375	0.866597499989439	taste	choicePhaseStart	1	8	8	foodImage.80	FOODEEG_Images\0796.jpg	NY	Right	Yes	0.866597499989439	0	183087	253
358.44921875	0	taste	response	1	8	8	foodImage.80	FOODEEG_Images\0796.jpg	NY	Right	Yes	0.866597499989439	0	183527	235
359.494140625	1	decision	trialStart	1	9	9	foodImage.29	FOODEEG_Images\0278.jpg	YN	Right	No	1.01306329999352	0	184062	251
360.5546875	2	decision	foodImageDisplay	1	9	9	foodImage.29	FOODEEG_Images\0278.jpg	YN	Right	No	1.01306329999352	0	184605	252
362.619140625	1.01306329999352	decision	choicePhaseStart	1	9	9	foodImage.29	FOODEEG_Images\0278.jpg	YN	Right	No	1.01306329999352	0	185662	253
363.625	0	decision	response	1	9	9	foodImage.29	FOODEEG_Images\0278.jpg	YN	Right	No	1.01306329999352	0	186177	235
364.66796875	1	health	trialStart	1	10	10	foodImage.4	FOODEEG_Images\0065.jpg	YN	Right	No	0.889746200002264	0	186711	251
365.724609375	2	health	foodImageDisplay	1	10	10	foodImage.4	FOODEEG_Images\0065.jpg	YN	Right	No	0.889746200002264	0	187252	252
367.7890625	0.889746200002264	health	choicePhaseStart	1	10	10	foodImage.4	FOODEEG_Images\0065.jpg	YN	Right	No	0.889746200002264	0	188309	253
368.671875	0	health	response	1	10	10	foodImage.4	FOODEEG_Images\0065.jpg	YN	Right	No	0.889746200002264	0	188761	235
369.724609375	1	decision	trialStart	1	11	11	foodImage.49	FOODEEG_Images\0515.jpg	YN	Left	Yes	1.00664649999817	0	189300	251
370.767578125	2	decision	foodImageDisplay	1	11	11	foodImage.49	FOODEEG_Images\0515.jpg	YN	Left	Yes	1.00664649999817	0	189834	252
372.83203125	1.00664649999817	decision	choicePhaseStart	1	11	11	foodImage.49	FOODEEG_Images\0515.jpg	YN	Left	Yes	1.00664649999817	0	190891	253
373.83203125	0	decision	response	1	11	11	foodImage.49	FOODEEG_Images\0515.jpg	YN	Left	Yes	1.00664649999817	0	191403	234
374.8828125	1	health	trialStart	1	12	12	foodImage.73	FOODEEG_Images\0717.jpg	NY	Left	No	1.43196119999629	0	191941	251
375.94140625	2	health	foodImageDisplay	1	12	12	foodImage.73	FOODEEG_Images\0717.jpg	NY	Left	No	1.43196119999629	0	192483	252
378.005859375	1.43196119999629	health	choicePhaseStart	1	12	12	foodImage.73	FOODEEG_Images\0717.jpg	NY	Left	No	1.43196119999629	0	193540	253
379.431640625	0	health	response	1	12	12	foodImage.73	FOODEEG_Images\0717.jpg	NY	Left	No	1.43196119999629	0	194270	234
380.4765625	1	decision	trialStart	1	13	13	foodImage.6	FOODEEG_Images\0113.jpg	YN	Left	Yes	1.33736630000931	0	194805	251
381.51953125	2	decision	foodImageDisplay	1	13	13	foodImage.6	FOODEEG_Images\0113.jpg	YN	Left	Yes	1.33736630000931	0	195339	252
383.583984375	1.33736630000931	decision	choicePhaseStart	1	13	13	foodImage.6	FOODEEG_Images\0113.jpg	YN	Left	Yes	1.33736630000931	0	196396	253
384.912109375	0	decision	response	1	13	13	foodImage.6	FOODEEG_Images\0113.jpg	YN	Left	Yes	1.33736630000931	0	197076	234
385.95703125	1	decision	trialStart	1	14	14	foodImage.3	FOODEEG_Images\0046.jpg	NY	Right	Yes	0.984749499999452	0	197611	251
387.001953125	2	decision	foodImageDisplay	1	14	14	foodImage.3	FOODEEG_Images\0046.jpg	NY	Right	Yes	0.984749499999452	0	198146	252
389.064453125	0.984749499999452	decision	choicePhaseStart	1	14	14	foodImage.3	FOODEEG_Images\0046.jpg	NY	Right	Yes	0.984749499999452	0	199202	253
390.041015625	0	decision	response	1	14	14	foodImage.3	FOODEEG_Images\0046.jpg	NY	Right	Yes	0.984749499999452	0	199702	235
391.08203125	1	health	trialStart	1	15	15	foodImage.54	FOODEEG_Images\0560.jpg	NY	Right	Yes	1.28688179999881	0	200235	251
392.138671875	2	health	foodImageDisplay	1	15	15	foodImage.54	FOODEEG_Images\0560.jpg	NY	Right	Yes	1.28688179999881	0	200776	252
394.201171875	1.28688179999881	health	choicePhaseStart	1	15	15	foodImage.54	FOODEEG_Images\0560.jpg	NY	Right	Yes	1.28688179999881	0	201832	253
395.478515625	0	health	response	1	15	15	foodImage.54	FOODEEG_Images\0560.jpg	NY	Right	Yes	1.28688179999881	0	202486	235
396.521484375	1	decision	trialStart	1	16	16	foodImage.30	FOODEEG_Images\0282.jpg	NY	Right	Yes	1.18090830001165	0	203020	251
397.5625	2	decision	foodImageDisplay	1	16	16	foodImage.30	FOODEEG_Images\0282.jpg	NY	Right	Yes	1.18090830001165	0	203553	252
399.626953125	1.18090830001165	decision	choicePhaseStart	1	16	16	foodImage.30	FOODEEG_Images\0282.jpg	NY	Right	Yes	1.18090830001165	0	204610	253
400.798828125	0	decision	response	1	16	16	foodImage.30	FOODEEG_Images\0282.jpg	NY	Right	Yes	1.18090830001165	0	205210	235
401.841796875	1	taste	trialStart	1	17	17	foodImage.110	FOODEEG_Images\0918.jpg	YN	Right	No	0.889582200004952	0	205744	251
402.87890625	2	taste	foodImageDisplay	1	17	17	foodImage.110	FOODEEG_Images\0918.jpg	YN	Right	No	0.889582200004952	0	206275	252
404.943359375	0.889582200004952	taste	choicePhaseStart	1	17	17	foodImage.110	FOODEEG_Images\0918.jpg	YN	Right	No	0.889582200004952	0	207332	253
405.822265625	0	taste	response	1	17	17	foodImage.110	FOODEEG_Images\0918.jpg	YN	Right	No	0.889582200004952	0	207782	235
406.86328125	1	health	trialStart	1	18	18	foodImage.72	FOODEEG_Images\0714.jpg	NY	Right	Yes	1.01320599998871	0	208315	251
407.90625	2	health	foodImageDisplay	1	18	18	foodImage.72	FOODEEG_Images\0714.jpg	NY	Right	Yes	1.01320599998871	0	208849	252
409.970703125	1.01320599998871	health	choicePhaseStart	1	18	18	foodImage.72	FOODEEG_Images\0714.jpg	NY	Right	Yes	1.01320599998871	0	209906	253
410.974609375	0	health	response	1	18	18	foodImage.72	FOODEEG_Images\0714.jpg	NY	Right	Yes	1.01320599998871	0	210420	235
412.017578125	1	taste	trialStart	1	19	19	foodImage.98	FOODEEG_Images\0906.jpg	NY	Left	No	1.39778389999992	0	210954	251
413.056640625	2	taste	foodImageDisplay	1	19	19	foodImage.98	FOODEEG_Images\0906.jpg	NY	Left	No	1.39778389999992	0	211486	252
415.119140625	1.39778389999992	taste	choicePhaseStart	1	19	19	foodImage.98	FOODEEG_Images\0906.jpg	NY	Left	No	1.39778389999992	0	212542	253
416.509765625	0	taste	response	1	19	19	foodImage.98	FOODEEG_Images\0906.jpg	NY	Left	No	1.39778389999992	0	213254	234
417.5546875	1	taste	trialStart	1	20	20	foodImage.2	FOODEEG_Images\0028.jpg	NY	Right	Yes	0.79571209999267	0	213789	251
418.595703125	2	taste	foodImageDisplay	1	20	20	foodImage.2	FOODEEG_Images\0028.jpg	NY	Right	Yes	0.79571209999267	0	214322	252
420.66015625	0.79571209999267	taste	choicePhaseStart	1	20	20	foodImage.2	FOODEEG_Images\0028.jpg	NY	Right	Yes	0.79571209999267	0	215379	253
421.4453125	0	taste	response	1	20	20	foodImage.2	FOODEEG_Images\0028.jpg	NY	Right	Yes	0.79571209999267	0	215781	235
422.48828125	1	health	trialStart	1	21	21	foodImage.29	FOODEEG_Images\0278.jpg	YN	Left	Yes	1.55726320001122	0	216315	251
423.53125	2	health	foodImageDisplay	1	21	21	foodImage.29	FOODEEG_Images\0278.jpg	YN	Left	Yes	1.55726320001122	0	216849	252
425.599609375	1.55726320001122	health	choicePhaseStart	1	21	21	foodImage.29	FOODEEG_Images\0278.jpg	YN	Left	Yes	1.55726320001122	0	217908	253
427.150390625	0	health	response	1	21	21	foodImage.29	FOODEEG_Images\0278.jpg	YN	Left	Yes	1.55726320001122	0	218702	234
428.19140625	1	health	trialStart	1	22	22	foodImage.56	FOODEEG_Images\0586.jpg	YN	Left	Yes	1.07857719999447	0	219235	251
429.232421875	2	health	foodImageDisplay	1	22	22	foodImage.56	FOODEEG_Images\0586.jpg	YN	Left	Yes	1.07857719999447	0	219768	252
431.296875	1.07857719999447	health	choicePhaseStart	1	22	22	foodImage.56	FOODEEG_Images\0586.jpg	YN	Left	Yes	1.07857719999447	0	220825	253
432.365234375	0	health	response	1	22	22	foodImage.56	FOODEEG_Images\0586.jpg	YN	Left	Yes	1.07857719999447	0	221372	234
433.408203125	1	decision	trialStart	1	23	23	foodImage.97	FOODEEG_Images\0905.jpg	YN	Left	Yes	0.948595900001237	0	221906	251
434.447265625	2	decision	foodImageDisplay	1	23	23	foodImage.97	FOODEEG_Images\0905.jpg	YN	Left	Yes	0.948595900001237	0	222438	252
436.51171875	0.948595900001237	decision	choicePhaseStart	1	23	23	foodImage.97	FOODEEG_Images\0905.jpg	YN	Left	Yes	0.948595900001237	0	223495	253
437.453125	0	decision	response	1	23	23	foodImage.97	FOODEEG_Images\0905.jpg	YN	Left	Yes	0.948595900001237	0	223977	234
438.494140625	1	taste	trialStart	1	24	24	foodImage.35	FOODEEG_Images\0350.jpg	NY	Right	Yes	1.12426299999061	0	224510	251
439.533203125	2	taste	foodImageDisplay	1	24	24	foodImage.35	FOODEEG_Images\0350.jpg	NY	Right	Yes	1.12426299999061	0	225042	252
441.595703125	1.12426299999061	taste	choicePhaseStart	1	24	24	foodImage.35	FOODEEG_Images\0350.jpg	NY	Right	Yes	1.12426299999061	0	226098	253
442.708984375	0	taste	response	1	24	24	foodImage.35	FOODEEG_Images\0350.jpg	NY	Right	Yes	1.12426299999061	0	226668	235
443.751953125	1	health	trialStart	1	25	25	foodImage.38	FOODEEG_Images\0365.jpg	NY	Right	Yes	0.762000500006252	0	227202	251
444.7890625	2	health	foodImageDisplay	1	25	25	foodImage.38	FOODEEG_Images\0365.jpg	NY	Right	Yes	0.762000500006252	0	227733	252
446.853515625	0.762000500006252	health	choicePhaseStart	1	25	25	foodImage.38	FOODEEG_Images\0365.jpg	NY	Right	Yes	0.762000500006252	0	228790	253
447.60546875	0	health	response	1	25	25	foodImage.38	FOODEEG_Images\0365.jpg	NY	Right	Yes	0.762000500006252	0	229175	235
448.6484375	1	taste	trialStart	1	26	26	foodImage.9	FOODEEG_Images\0138.jpg	NY	Right	Yes	0.715562999990652	0	229709	251
449.70703125	2	taste	foodImageDisplay	1	26	26	foodImage.9	FOODEEG_Images\0138.jpg	NY	Right	Yes	0.715562999990652	0	230251	252
451.771484375	0.715562999990652	taste	choicePhaseStart	1	26	26	foodImage.9	FOODEEG_Images\0138.jpg	NY	Right	Yes	0.715562999990652	0	231308	253
452.4765625	0	taste	response	1	26	26	foodImage.9	FOODEEG_Images\0138.jpg	NY	Right	Yes	0.715562999990652	0	231669	235
453.51953125	1	decision	trialStart	1	27	27	foodImage.96	FOODEEG_Images\0904.jpg	YN	Left	Yes	0.992264300002716	0	232203	251
454.556640625	2	decision	foodImageDisplay	1	27	27	foodImage.96	FOODEEG_Images\0904.jpg	YN	Left	Yes	0.992264300002716	0	232734	252
456.62109375	0.992264300002716	decision	choicePhaseStart	1	27	27	foodImage.96	FOODEEG_Images\0904.jpg	YN	Left	Yes	0.992264300002716	0	233791	253
457.60546875	0	decision	response	1	27	27	foodImage.96	FOODEEG_Images\0904.jpg	YN	Left	Yes	0.992264300002716	0	234295	234
458.6484375	1	health	trialStart	1	28	28	foodImage.5	FOODEEG_Images\0107.jpg	NY	Right	Yes	0.811935099991388	0	234829	251
459.73046875	2	health	foodImageDisplay	1	28	28	foodImage.5	FOODEEG_Images\0107.jpg	NY	Right	Yes	0.811935099991388	0	235383	252
461.794921875	0.811935099991388	health	choicePhaseStart	1	28	28	foodImage.5	FOODEEG_Images\0107.jpg	NY	Right	Yes	0.811935099991388	0	236440	253
462.595703125	0	health	response	1	28	28	foodImage.5	FOODEEG_Images\0107.jpg	NY	Right	Yes	0.811935099991388	0	236850	235
463.640625	1	health	trialStart	1	29	29	foodImage.89	FOODEEG_Images\0881.jpg	YN	Left	Yes	0.820424599995022	0	237385	251
464.6953125	2	health	foodImageDisplay	1	29	29	foodImage.89	FOODEEG_Images\0881.jpg	YN	Left	Yes	0.820424599995022	0	237925	252
466.76171875	0.820424599995022	health	choicePhaseStart	1	29	29	foodImage.89	FOODEEG_Images\0881.jpg	YN	Left	Yes	0.820424599995022	0	238983	253
467.572265625	0	health	response	1	29	29	foodImage.89	FOODEEG_Images\0881.jpg	YN	Left	Yes	0.820424599995022	0	239398	234
468.6171875	1	health	trialStart	1	30	30	foodImage.97	FOODEEG_Images\0905.jpg	YN	Left	Yes	1.1912830999936	0	239933	251
469.65625	2	health	foodImageDisplay	1	30	30	foodImage.97	FOODEEG_Images\0905.jpg	YN	Left	Yes	1.1912830999936	0	240465	252
471.724609375	1.1912830999936	health	choicePhaseStart	1	30	30	foodImage.97	FOODEEG_Images\0905.jpg	YN	Left	Yes	1.1912830999936	0	241524	253
472.908203125	0	health	response	1	30	30	foodImage.97	FOODEEG_Images\0905.jpg	YN	Left	Yes	1.1912830999936	0	242130	234
473.951171875	1	decision	trialStart	1	31	31	foodImage.118	FOODEEG_Images\0926.jpg	NY	Left	No	1.73559850000311	0	242664	251
474.990234375	2	decision	foodImageDisplay	1	31	31	foodImage.118	FOODEEG_Images\0926.jpg	NY	Left	No	1.73559850000311	0	243196	252
477.0546875	1.73559850000311	decision	choicePhaseStart	1	31	31	foodImage.118	FOODEEG_Images\0926.jpg	NY	Left	No	1.73559850000311	0	244253	253
478.779296875	0	decision	response	1	31	31	foodImage.118	FOODEEG_Images\0926.jpg	NY	Left	No	1.73559850000311	0	245136	234
479.822265625	1	decision	trialStart	1	32	32	foodImage.117	FOODEEG_Images\0925.jpg	NY	Left	No	1.18323040001269	0	245670	251
480.861328125	2	decision	foodImageDisplay	1	32	32	foodImage.117	FOODEEG_Images\0925.jpg	NY	Left	No	1.18323040001269	0	246202	252
482.92578125	1.18323040001269	decision	choicePhaseStart	1	32	32	foodImage.117	FOODEEG_Images\0925.jpg	NY	Left	No	1.18323040001269	0	247259	253
484.099609375	0	decision	response	1	32	32	foodImage.117	FOODEEG_Images\0925.jpg	NY	Left	No	1.18323040001269	0	247860	234
485.14453125	1	taste	trialStart	1	33	33	foodImage.7	FOODEEG_Images\0116.jpg	YN	Left	Yes	1.23572150000837	0	248395	251
486.185546875	2	taste	foodImageDisplay	1	33	33	foodImage.7	FOODEEG_Images\0116.jpg	YN	Left	Yes	1.23572150000837	0	248928	252
488.25	1.23572150000837	taste	choicePhaseStart	1	33	33	foodImage.7	FOODEEG_Images\0116.jpg	YN	Left	Yes	1.23572150000837	0	249985	253
489.4765625	0	taste	response	1	33	33	foodImage.7	FOODEEG_Images\0116.jpg	YN	Left	Yes	1.23572150000837	0	250613	234
490.517578125	1	health	trialStart	1	34	34	foodImage.83	FOODEEG_Images\0827.jpg	YN	Left	Yes	0.703862900001695	0	251146	251
491.57421875	2	health	foodImageDisplay	1	34	34	foodImage.83	FOODEEG_Images\0827.jpg	YN	Left	Yes	0.703862900001695	0	251687	252
493.63671875	0.703862900001695	health	choicePhaseStart	1	34	34	foodImage.83	FOODEEG_Images\0827.jpg	YN	Left	Yes	0.703862900001695	0	252743	253
494.33203125	0	health	response	1	34	34	foodImage.83	FOODEEG_Images\0827.jpg	YN	Left	Yes	0.703862900001695	0	253099	234
495.375	1	decision	trialStart	1	35	35	foodImage.51	FOODEEG_Images\0536.jpg	YN	Left	Yes	1.01652259999537	0	253633	251
496.41796875	2	decision	foodImageDisplay	1	35	35	foodImage.51	FOODEEG_Images\0536.jpg	YN	Left	Yes	1.01652259999537	0	254167	252
498.484375	1.01652259999537	decision	choicePhaseStart	1	35	35	foodImage.51	FOODEEG_Images\0536.jpg	YN	Left	Yes	1.01652259999537	0	255225	253
499.4921875	0	decision	response	1	35	35	foodImage.51	FOODEEG_Images\0536.jpg	YN	Left	Yes	1.01652259999537	0	255741	234
500.533203125	1	health	trialStart	1	36	36	foodImage.34	FOODEEG_Images\0339.jpg	YN	Left	Yes	0.829082900003414	0	256274	251
501.591796875	2	health	foodImageDisplay	1	36	36	foodImage.34	FOODEEG_Images\0339.jpg	YN	Left	Yes	0.829082900003414	0	256816	252
503.654296875	0.829082900003414	health	choicePhaseStart	1	36	36	foodImage.34	FOODEEG_Images\0339.jpg	YN	Left	Yes	0.829082900003414	0	257872	253
504.474609375	0	health	response	1	36	36	foodImage.34	FOODEEG_Images\0339.jpg	YN	Left	Yes	0.829082900003414	0	258292	234
505.517578125	1	taste	trialStart	1	37	37	foodImage.81	FOODEEG_Images\0797.jpg	YN	Right	No	2.01688039999863	0	258826	251
506.572265625	2	taste	foodImageDisplay	1	37	37	foodImage.81	FOODEEG_Images\0797.jpg	YN	Right	No	2.01688039999863	0	259366	252
508.634765625	2.01688039999863	taste	choicePhaseStart	1	37	37	foodImage.81	FOODEEG_Images\0797.jpg	YN	Right	No	2.01688039999863	0	260422	253
510.642578125	0	taste	response	1	37	37	foodImage.81	FOODEEG_Images\0797.jpg	YN	Right	No	2.01688039999863	0	261450	235
511.6875	1	taste	trialStart	1	38	38	foodImage.57	FOODEEG_Images\0587.jpg	NY	Right	Yes	0.785024099997827	0	261985	251
512.73046875	2	taste	foodImageDisplay	1	38	38	foodImage.57	FOODEEG_Images\0587.jpg	NY	Right	Yes	0.785024099997827	0	262519	252
514.794921875	0.785024099997827	taste	choicePhaseStart	1	38	38	foodImage.57	FOODEEG_Images\0587.jpg	NY	Right	Yes	0.785024099997827	0	263576	253
515.5703125	0	taste	response	1	38	38	foodImage.57	FOODEEG_Images\0587.jpg	NY	Right	Yes	0.785024099997827	0	263973	235
516.61328125	1	taste	trialStart	1	39	39	foodImage.58	FOODEEG_Images\0605.jpg	YN	Left	Yes	1.1569615000044	0	264507	251
517.6953125	2	taste	foodImageDisplay	1	39	39	foodImage.58	FOODEEG_Images\0605.jpg	YN	Left	Yes	1.1569615000044	0	265061	252
519.759765625	1.1569615000044	taste	choicePhaseStart	1	39	39	foodImage.58	FOODEEG_Images\0605.jpg	YN	Left	Yes	1.1569615000044	0	266118	253
520.90625	0	taste	response	1	39	39	foodImage.58	FOODEEG_Images\0605.jpg	YN	Left	Yes	1.1569615000044	0	266705	234
521.947265625	1	health	trialStart	1	40	40	foodImage.45	FOODEEG_Images\0478.jpg	NY	Right	Yes	1.12159720000636	0	267238	251
522.994140625	2	health	foodImageDisplay	1	40	40	foodImage.45	FOODEEG_Images\0478.jpg	NY	Right	Yes	1.12159720000636	0	267774	252
525.056640625	1.12159720000636	health	choicePhaseStart	1	40	40	foodImage.45	FOODEEG_Images\0478.jpg	NY	Right	Yes	1.12159720000636	0	268830	253
526.169921875	0	health	response	1	40	40	foodImage.45	FOODEEG_Images\0478.jpg	NY	Right	Yes	1.12159720000636	0	269400	235
527.212890625	1	health	trialStart	1	41	41	foodImage.50	FOODEEG_Images\0529.jpg	NY	Right	Yes	0.714593599986983	0	269934	251
528.2734375	2	health	foodImageDisplay	1	41	41	foodImage.50	FOODEEG_Images\0529.jpg	NY	Right	Yes	0.714593599986983	0	270477	252
530.337890625	0.714593599986983	health	choicePhaseStart	1	41	41	foodImage.50	FOODEEG_Images\0529.jpg	NY	Right	Yes	0.714593599986983	0	271534	253
531.04296875	0	health	response	1	41	41	foodImage.50	FOODEEG_Images\0529.jpg	NY	Right	Yes	0.714593599986983	0	271895	235
532.08984375	1	health	trialStart	1	42	42	foodImage.2	FOODEEG_Images\0028.jpg	NY	Left	No	1.65465590001259	0	272431	251
533.1328125	2	health	foodImageDisplay	1	42	42	foodImage.2	FOODEEG_Images\0028.jpg	NY	Left	No	1.65465590001259	0	272965	252
535.197265625	1.65465590001259	health	choicePhaseStart	1	42	42	foodImage.2	FOODEEG_Images\0028.jpg	NY	Left	No	1.65465590001259	0	274022	253
536.841796875	0	health	response	1	42	42	foodImage.2	FOODEEG_Images\0028.jpg	NY	Left	No	1.65465590001259	0	274864	234
537.88671875	1	health	trialStart	1	43	43	foodImage.41	FOODEEG_Images\0409.jpg	YN	Left	Yes	1.15818760001275	0	275399	251
538.93359375	2	health	foodImageDisplay	1	43	43	foodImage.41	FOODEEG_Images\0409.jpg	YN	Left	Yes	1.15818760001275	0	275935	252
540.99609375	1.15818760001275	health	choicePhaseStart	1	43	43	foodImage.41	FOODEEG_Images\0409.jpg	YN	Left	Yes	1.15818760001275	0	276991	253
542.14453125	0	health	response	1	43	43	foodImage.41	FOODEEG_Images\0409.jpg	YN	Left	Yes	1.15818760001275	0	277579	234
543.193359375	1	decision	trialStart	1	44	44	foodImage.110	FOODEEG_Images\0918.jpg	YN	Right	No	0.913313099998049	0	278116	251
544.23046875	2	decision	foodImageDisplay	1	44	44	foodImage.110	FOODEEG_Images\0918.jpg	YN	Right	No	0.913313099998049	0	278647	252
546.294921875	0.913313099998049	decision	choicePhaseStart	1	44	44	foodImage.110	FOODEEG_Images\0918.jpg	YN	Right	No	0.913313099998049	0	279704	253
547.201171875	0	decision	response	1	44	44	foodImage.110	FOODEEG_Images\0918.jpg	YN	Right	No	0.913313099998049	0	280168	235
548.244140625	1	taste	trialStart	1	45	45	foodImage.40	FOODEEG_Images\0373.jpg	NY	Right	Yes	0.938358600003994	0	280702	251
549.296875	2	taste	foodImageDisplay	1	45	45	foodImage.40	FOODEEG_Images\0373.jpg	NY	Right	Yes	0.938358600003994	0	281241	252
551.359375	0.938358600003994	taste	choicePhaseStart	1	45	45	foodImage.40	FOODEEG_Images\0373.jpg	NY	Right	Yes	0.938358600003994	0	282297	253
552.2890625	0	taste	response	1	45	45	foodImage.40	FOODEEG_Images\0373.jpg	NY	Right	Yes	0.938358600003994	0	282773	235
553.3359375	1	decision	trialStart	1	46	46	foodImage.90	FOODEEG_Images\0890.jpg	YN	Left	Yes	0.894957200012868	0	283309	251
554.396484375	2	decision	foodImageDisplay	1	46	46	foodImage.90	FOODEEG_Images\0890.jpg	YN	Left	Yes	0.894957200012868	0	283852	252
556.458984375	0.894957200012868	decision	choicePhaseStart	1	46	46	foodImage.90	FOODEEG_Images\0890.jpg	YN	Left	Yes	0.894957200012868	0	284908	253
557.34375	0	decision	response	1	46	46	foodImage.90	FOODEEG_Images\0890.jpg	YN	Left	Yes	0.894957200012868	0	285361	234
558.38671875	1	taste	trialStart	1	47	47	foodImage.70	FOODEEG_Images\0705.jpg	NY	Right	Yes	1.10160750000796	0	285895	251
559.4453125	2	taste	foodImageDisplay	1	47	47	foodImage.70	FOODEEG_Images\0705.jpg	NY	Right	Yes	1.10160750000796	0	286437	252
561.5078125	1.10160750000796	taste	choicePhaseStart	1	47	47	foodImage.70	FOODEEG_Images\0705.jpg	NY	Right	Yes	1.10160750000796	0	287493	253
562.6015625	0	taste	response	1	47	47	foodImage.70	FOODEEG_Images\0705.jpg	NY	Right	Yes	1.10160750000796	0	288053	235
563.64453125	1	health	trialStart	1	48	48	foodImage.28	FOODEEG_Images\0273.jpg	NY	Right	Yes	0.737977500000852	0	288587	251
564.697265625	2	health	foodImageDisplay	1	48	48	foodImage.28	FOODEEG_Images\0273.jpg	NY	Right	Yes	0.737977500000852	0	289126	252
566.759765625	0.737977500000852	health	choicePhaseStart	1	48	48	foodImage.28	FOODEEG_Images\0273.jpg	NY	Right	Yes	0.737977500000852	0	290182	253
567.48828125	0	health	response	1	48	48	foodImage.28	FOODEEG_Images\0273.jpg	NY	Right	Yes	0.737977500000852	0	290555	235
568.53125	1	decision	trialStart	1	49	49	foodImage.64	FOODEEG_Images\0647.jpg	YN	Left	Yes	1.34507460000168	0	291089	251
569.609375	2	decision	foodImageDisplay	1	49	49	foodImage.64	FOODEEG_Images\0647.jpg	YN	Left	Yes	1.34507460000168	0	291641	252
571.673828125	1.34507460000168	decision	choicePhaseStart	1	49	49	foodImage.64	FOODEEG_Images\0647.jpg	YN	Left	Yes	1.34507460000168	0	292698	253
573.0078125	0	decision	response	1	49	49	foodImage.64	FOODEEG_Images\0647.jpg	YN	Left	Yes	1.34507460000168	0	293381	234
574.05078125	1	health	trialStart	1	50	50	foodImage.47	FOODEEG_Images\0488.jpg	NY	Left	No	1.23700209999515	0	293915	251
575.091796875	2	health	foodImageDisplay	1	50	50	foodImage.47	FOODEEG_Images\0488.jpg	NY	Left	No	1.23700209999515	0	294448	252
577.15625	1.23700209999515	health	choicePhaseStart	1	50	50	foodImage.47	FOODEEG_Images\0488.jpg	NY	Left	No	1.23700209999515	0	295505	253
578.384765625	0	health	response	1	50	50	foodImage.47	FOODEEG_Images\0488.jpg	NY	Left	No	1.23700209999515	0	296134	234
579.42578125	1	decision	trialStart	1	51	51	foodImage.119	FOODEEG_Images\0927.jpg	NY	Left	No	1.05257710001024	0	296667	251
580.46484375	2	decision	foodImageDisplay	1	51	51	foodImage.119	FOODEEG_Images\0927.jpg	NY	Left	No	1.05257710001024	0	297199	252
582.529296875	1.05257710001024	decision	choicePhaseStart	1	51	51	foodImage.119	FOODEEG_Images\0927.jpg	NY	Left	No	1.05257710001024	0	298256	253
583.576171875	0	decision	response	1	51	51	foodImage.119	FOODEEG_Images\0927.jpg	NY	Left	No	1.05257710001024	0	298792	234
584.62109375	1	health	trialStart	1	52	52	foodImage.51	FOODEEG_Images\0536.jpg	NY	Right	Yes	1.27068909999798	0	299327	251
585.66796875	2	health	foodImageDisplay	1	52	52	foodImage.51	FOODEEG_Images\0536.jpg	NY	Right	Yes	1.27068909999798	0	299863	252
587.73046875	1.27068909999798	health	choicePhaseStart	1	52	52	foodImage.51	FOODEEG_Images\0536.jpg	NY	Right	Yes	1.27068909999798	0	300919	253
588.9921875	0	health	response	1	52	52	foodImage.51	FOODEEG_Images\0536.jpg	NY	Right	Yes	1.27068909999798	0	301565	235
590.033203125	1	taste	trialStart	1	53	53	foodImage.66	FOODEEG_Images\0676.jpg	NY	Right	Yes	0.893792300004861	0	302098	251
591.076171875	2	taste	foodImageDisplay	1	53	53	foodImage.66	FOODEEG_Images\0676.jpg	NY	Right	Yes	0.893792300004861	0	302632	252
593.14453125	0.893792300004861	taste	choicePhaseStart	1	53	53	foodImage.66	FOODEEG_Images\0676.jpg	NY	Right	Yes	0.893792300004861	0	303691	253
594.03125	0	taste	response	1	53	53	foodImage.66	FOODEEG_Images\0676.jpg	NY	Right	Yes	0.893792300004861	0	304145	235
595.07421875	1	taste	trialStart	1	54	54	foodImage.44	FOODEEG_Images\0459.jpg	NY	Right	Yes	1.17693750000035	0	304679	251
596.12109375	2	taste	foodImageDisplay	1	54	54	foodImage.44	FOODEEG_Images\0459.jpg	NY	Right	Yes	1.17693750000035	0	305215	252
598.18359375	1.17693750000035	taste	choicePhaseStart	1	54	54	foodImage.44	FOODEEG_Images\0459.jpg	NY	Right	Yes	1.17693750000035	0	306271	253
599.3515625	0	taste	response	1	54	54	foodImage.44	FOODEEG_Images\0459.jpg	NY	Right	Yes	1.17693750000035	0	306869	235
600.400390625	1	taste	trialStart	1	55	55	foodImage.50	FOODEEG_Images\0529.jpg	NY	Left	No	1.02271089999704	0	307406	251
601.458984375	2	taste	foodImageDisplay	1	55	55	foodImage.50	FOODEEG_Images\0529.jpg	NY	Left	No	1.02271089999704	0	307948	252
603.521484375	1.02271089999704	taste	choicePhaseStart	1	55	55	foodImage.50	FOODEEG_Images\0529.jpg	NY	Left	No	1.02271089999704	0	309004	253
604.53515625	0	taste	response	1	55	55	foodImage.50	FOODEEG_Images\0529.jpg	NY	Left	No	1.02271089999704	0	309523	234
605.578125	1	decision	trialStart	1	56	56	foodImage.8	FOODEEG_Images\0136.jpg	NY	Right	Yes	0.843460699994466	0	310057	251
606.62109375	2	decision	foodImageDisplay	1	56	56	foodImage.8	FOODEEG_Images\0136.jpg	NY	Right	Yes	0.843460699994466	0	310591	252
608.685546875	0.843460699994466	decision	choicePhaseStart	1	56	56	foodImage.8	FOODEEG_Images\0136.jpg	NY	Right	Yes	0.843460699994466	0	311648	253
609.51953125	0	decision	response	1	56	56	foodImage.8	FOODEEG_Images\0136.jpg	NY	Right	Yes	0.843460699994466	0	312075	235
610.5625	1	taste	trialStart	1	57	57	foodImage.39	FOODEEG_Images\0367.jpg	YN	Left	Yes	2.60856120000244	0	312609	251
611.599609375	2	taste	foodImageDisplay	1	57	57	foodImage.39	FOODEEG_Images\0367.jpg	YN	Left	Yes	2.60856120000244	0	313140	252
613.6640625	2.60856120000244	taste	choicePhaseStart	1	57	57	foodImage.39	FOODEEG_Images\0367.jpg	YN	Left	Yes	2.60856120000244	0	314197	253
616.263671875	0	taste	response	1	57	57	foodImage.39	FOODEEG_Images\0367.jpg	YN	Left	Yes	2.60856120000244	0	315528	234
617.306640625	1	health	trialStart	1	58	58	foodImage.74	FOODEEG_Images\0752.jpg	YN	Left	Yes	0.911771500002942	0	316062	251
618.3515625	2	health	foodImageDisplay	1	58	58	foodImage.74	FOODEEG_Images\0752.jpg	YN	Left	Yes	0.911771500002942	0	316597	252
620.416015625	0.911771500002942	health	choicePhaseStart	1	58	58	foodImage.74	FOODEEG_Images\0752.jpg	YN	Left	Yes	0.911771500002942	0	317654	253
621.318359375	0	health	response	1	58	58	foodImage.74	FOODEEG_Images\0752.jpg	YN	Left	Yes	0.911771500002942	0	318116	234
622.3671875	1	decision	trialStart	1	59	59	foodImage.83	FOODEEG_Images\0827.jpg	YN	Left	Yes	1.16198270001041	0	318653	251
623.421875	2	decision	foodImageDisplay	1	59	59	foodImage.83	FOODEEG_Images\0827.jpg	YN	Left	Yes	1.16198270001041	0	319193	252
625.484375	1.16198270001041	decision	choicePhaseStart	1	59	59	foodImage.83	FOODEEG_Images\0827.jpg	YN	Left	Yes	1.16198270001041	0	320249	253
626.638671875	0	decision	response	1	59	59	foodImage.83	FOODEEG_Images\0827.jpg	YN	Left	Yes	1.16198270001041	0	320840	234
627.681640625	1	taste	trialStart	1	60	60	foodImage.82	FOODEEG_Images\0805.jpg	NY	Left	No	1.21375869998883	0	321374	251
628.73828125	2	taste	foodImageDisplay	1	60	60	foodImage.82	FOODEEG_Images\0805.jpg	NY	Left	No	1.21375869998883	0	321915	252
630.80078125	1.21375869998883	taste	choicePhaseStart	1	60	60	foodImage.82	FOODEEG_Images\0805.jpg	NY	Left	No	1.21375869998883	0	322971	253
632.005859375	0	taste	response	1	60	60	foodImage.82	FOODEEG_Images\0805.jpg	NY	Left	No	1.21375869998883	0	323588	234
634.044921875	10.5625	n/a	blockEnd	n/a	n/a	n/a	n/a	n/a	n/a	n/a	n/a	n/a	n/a	324632	254
644.607421875	2	n/a	blockStart	2	n/a	n/a	n/a	n/a	n/a	n/a	n/a	n/a	n/a	330040	250
646.640625	1	taste	trialStart	2	61	1	foodImage.62	FOODEEG_Images\0644.jpg	YN	Left	Yes	0.981200800000806	0	331081	251
647.705078125	2	taste	foodImageDisplay	2	61	1	foodImage.62	FOODEEG_Images\0644.jpg	YN	Left	Yes	0.981200800000806	0	331626	252
649.767578125	0.981200800000806	taste	choicePhaseStart	2	61	1	foodImage.62	FOODEEG_Images\0644.jpg	YN	Left	Yes	0.981200800000806	0	332682	253
650.7421875	0	taste	response	2	61	1	foodImage.62	FOODEEG_Images\0644.jpg	YN	Left	Yes	0.981200800000806	0	333181	234
651.7890625	1	taste	trialStart	2	62	2	foodImage.24	FOODEEG_Images\0250.jpg	NY	Right	Yes	0.782824699999765	0	333717	251
652.83203125	2	taste	foodImageDisplay	2	62	2	foodImage.24	FOODEEG_Images\0250.jpg	NY	Right	Yes	0.782824699999765	0	334251	252
654.896484375	0.782824699999765	taste	choicePhaseStart	2	62	2	foodImage.24	FOODEEG_Images\0250.jpg	NY	Right	Yes	0.782824699999765	0	335308	253
655.669921875	0	taste	response	2	62	2	foodImage.24	FOODEEG_Images\0250.jpg	NY	Right	Yes	0.782824699999765	0	335704	235
656.716796875	1	taste	trialStart	2	63	3	foodImage.60	FOODEEG_Images\0614.jpg	NY	Right	Yes	0.914179700004752	0	336240	251
657.78515625	2	taste	foodImageDisplay	2	63	3	foodImage.60	FOODEEG_Images\0614.jpg	NY	Right	Yes	0.914179700004752	0	336787	252
659.849609375	0.914179700004752	taste	choicePhaseStart	2	63	3	foodImage.60	FOODEEG_Images\0614.jpg	NY	Right	Yes	0.914179700004752	0	337844	253
660.7578125	0	taste	response	2	63	3	foodImage.60	FOODEEG_Images\0614.jpg	NY	Right	Yes	0.914179700004752	0	338309	235
661.81640625	1	taste	trialStart	2	64	4	foodImage.88	FOODEEG_Images\0878.jpg	YN	Left	Yes	1.4108261000074	0	338851	251
662.869140625	2	taste	foodImageDisplay	2	64	4	foodImage.88	FOODEEG_Images\0878.jpg	YN	Left	Yes	1.4108261000074	0	339390	252
664.931640625	1.4108261000074	taste	choicePhaseStart	2	64	4	foodImage.88	FOODEEG_Images\0878.jpg	YN	Left	Yes	1.4108261000074	0	340446	253
666.33203125	0	taste	response	2	64	4	foodImage.88	FOODEEG_Images\0878.jpg	YN	Left	Yes	1.4108261000074	0	341163	234
667.375	1	health	trialStart	2	65	5	foodImage.87	FOODEEG_Images\0873.jpg	YN	Left	Yes	0.725253099997644	0	341697	251
668.45703125	2	health	foodImageDisplay	2	65	5	foodImage.87	FOODEEG_Images\0873.jpg	YN	Left	Yes	0.725253099997644	0	342251	252
670.51953125	0.725253099997644	health	choicePhaseStart	2	65	5	foodImage.87	FOODEEG_Images\0873.jpg	YN	Left	Yes	0.725253099997644	0	343307	253
671.236328125	0	health	response	2	65	5	foodImage.87	FOODEEG_Images\0873.jpg	YN	Left	Yes	0.725253099997644	0	343674	234
672.28125	1	decision	trialStart	2	66	6	foodImage.31	FOODEEG_Images\0294.jpg	NY	Right	Yes	0.85900880000554	0	344209	251
673.32421875	2	decision	foodImageDisplay	2	66	6	foodImage.31	FOODEEG_Images\0294.jpg	NY	Right	Yes	0.85900880000554	0	344743	252
675.38671875	0.85900880000554	decision	choicePhaseStart	2	66	6	foodImage.31	FOODEEG_Images\0294.jpg	NY	Right	Yes	0.85900880000554	0	345799	253
676.236328125	0	decision	response	2	66	6	foodImage.31	FOODEEG_Images\0294.jpg	NY	Right	Yes	0.85900880000554	0	346234	235
677.283203125	1	health	trialStart	2	67	7	foodImage.80	FOODEEG_Images\0796.jpg	YN	Left	Yes	0.824103599996306	0	346770	251
678.33984375	2	health	foodImageDisplay	2	67	7	foodImage.80	FOODEEG_Images\0796.jpg	YN	Left	Yes	0.824103599996306	0	347311	252
680.404296875	0.824103599996306	health	choicePhaseStart	2	67	7	foodImage.80	FOODEEG_Images\0796.jpg	YN	Left	Yes	0.824103599996306	0	348368	253
681.21875	0	health	response	2	67	7	foodImage.80	FOODEEG_Images\0796.jpg	YN	Left	Yes	0.824103599996306	0	348785	234
682.26171875	1	taste	trialStart	2	68	8	foodImage.87	FOODEEG_Images\0873.jpg	YN	Right	No	0.821497600001749	0	349319	251
683.3203125	2	taste	foodImageDisplay	2	68	8	foodImage.87	FOODEEG_Images\0873.jpg	YN	Right	No	0.821497600001749	0	349861	252
685.3828125	0.821497600001749	taste	choicePhaseStart	2	68	8	foodImage.87	FOODEEG_Images\0873.jpg	YN	Right	No	0.821497600001749	0	350917	253
686.1953125	0	taste	response	2	68	8	foodImage.87	FOODEEG_Images\0873.jpg	YN	Right	No	0.821497600001749	0	351333	235
687.23828125	1	decision	trialStart	2	69	9	foodImage.36	FOODEEG_Images\0352.jpg	NY	Right	Yes	0.811878099993919	0	351867	251
688.296875	2	decision	foodImageDisplay	2	69	9	foodImage.36	FOODEEG_Images\0352.jpg	NY	Right	Yes	0.811878099993919	0	352409	252
690.359375	0.811878099993919	decision	choicePhaseStart	2	69	9	foodImage.36	FOODEEG_Images\0352.jpg	NY	Right	Yes	0.811878099993919	0	353465	253
691.1640625	0	decision	response	2	69	9	foodImage.36	FOODEEG_Images\0352.jpg	NY	Right	Yes	0.811878099993919	0	353877	235
692.20703125	1	taste	trialStart	2	70	10	foodImage.27	FOODEEG_Images\0263.jpg	YN	Left	Yes	1.00721319999138	0	354411	251
693.248046875	2	taste	foodImageDisplay	2	70	10	foodImage.27	FOODEEG_Images\0263.jpg	YN	Left	Yes	1.00721319999138	0	354944	252
695.318359375	1.00721319999138	taste	choicePhaseStart	2	70	10	foodImage.27	FOODEEG_Images\0263.jpg	YN	Left	Yes	1.00721319999138	0	356004	253
696.31640625	0	taste	response	2	70	10	foodImage.27	FOODEEG_Images\0263.jpg	YN	Left	Yes	1.00721319999138	0	356515	234
697.359375	1	decision	trialStart	2	71	11	foodImage.95	FOODEEG_Images\0903.jpg	YN	Right	No	0.860325800007558	0	357049	251
698.3984375	2	decision	foodImageDisplay	2	71	11	foodImage.95	FOODEEG_Images\0903.jpg	YN	Right	No	0.860325800007558	0	357581	252
700.4609375	0.860325800007558	decision	choicePhaseStart	2	71	11	foodImage.95	FOODEEG_Images\0903.jpg	YN	Right	No	0.860325800007558	0	358637	253
701.314453125	0	decision	response	2	71	11	foodImage.95	FOODEEG_Images\0903.jpg	YN	Right	No	0.860325800007558	0	359074	235
702.359375	1	health	trialStart	2	72	12	foodImage.57	FOODEEG_Images\0587.jpg	NY	Right	Yes	0.737105200008955	0	359609	251
703.40234375	2	health	foodImageDisplay	2	72	12	foodImage.57	FOODEEG_Images\0587.jpg	NY	Right	Yes	0.737105200008955	0	360143	252
705.466796875	0.737105200008955	health	choicePhaseStart	2	72	12	foodImage.57	FOODEEG_Images\0587.jpg	NY	Right	Yes	0.737105200008955	0	361200	253
706.1953125	0	health	response	2	72	12	foodImage.57	FOODEEG_Images\0587.jpg	NY	Right	Yes	0.737105200008955	0	361573	235
707.23828125	1	health	trialStart	2	73	13	foodImage.42	FOODEEG_Images\0438.jpg	NY	Right	Yes	0.886584100007894	0	362107	251
708.349609375	2	health	foodImageDisplay	2	73	13	foodImage.42	FOODEEG_Images\0438.jpg	NY	Right	Yes	0.886584100007894	0	362676	252
710.4140625	0.886584100007894	health	choicePhaseStart	2	73	13	foodImage.42	FOODEEG_Images\0438.jpg	NY	Right	Yes	0.886584100007894	0	363733	253
711.291015625	0	health	response	2	73	13	foodImage.42	FOODEEG_Images\0438.jpg	NY	Right	Yes	0.886584100007894	0	364182	235
712.333984375	1	health	trialStart	2	74	14	foodImage.58	FOODEEG_Images\0605.jpg	YN	Left	Yes	0.777781400000094	0	364716	251
713.390625	2	health	foodImageDisplay	2	74	14	foodImage.58	FOODEEG_Images\0605.jpg	YN	Left	Yes	0.777781400000094	0	365257	252
715.458984375	0.777781400000094	health	choicePhaseStart	2	74	14	foodImage.58	FOODEEG_Images\0605.jpg	YN	Left	Yes	0.777781400000094	0	366316	253
716.2265625	0	health	response	2	74	14	foodImage.58	FOODEEG_Images\0605.jpg	YN	Left	Yes	0.777781400000094	0	366709	234
717.2734375	1	decision	trialStart	2	75	15	foodImage.16	FOODEEG_Images\0196.jpg	YN	Left	Yes	1.17198410000128	0	367245	251
718.341796875	2	decision	foodImageDisplay	2	75	15	foodImage.16	FOODEEG_Images\0196.jpg	YN	Left	Yes	1.17198410000128	0	367792	252
720.40625	1.17198410000128	decision	choicePhaseStart	2	75	15	foodImage.16	FOODEEG_Images\0196.jpg	YN	Left	Yes	1.17198410000128	0	368849	253
721.5703125	0	decision	response	2	75	15	foodImage.16	FOODEEG_Images\0196.jpg	YN	Left	Yes	1.17198410000128	0	369445	234
722.61328125	1	health	trialStart	2	76	16	foodImage.7	FOODEEG_Images\0116.jpg	NY	Left	No	0.908794899994973	0	369979	251
723.65234375	2	health	foodImageDisplay	2	76	16	foodImage.7	FOODEEG_Images\0116.jpg	NY	Left	No	0.908794899994973	0	370511	252
725.716796875	0.908794899994973	health	choicePhaseStart	2	76	16	foodImage.7	FOODEEG_Images\0116.jpg	NY	Left	No	0.908794899994973	0	371568	253
726.619140625	0	health	response	2	76	16	foodImage.7	FOODEEG_Images\0116.jpg	NY	Left	No	0.908794899994973	0	372030	234
727.66015625	1	taste	trialStart	2	77	17	foodImage.64	FOODEEG_Images\0647.jpg	YN	Left	Yes	1.1720750000095	0	372563	251
728.71875	2	taste	foodImageDisplay	2	77	17	foodImage.64	FOODEEG_Images\0647.jpg	YN	Left	Yes	1.1720750000095	0	373105	252
730.783203125	1.1720750000095	taste	choicePhaseStart	2	77	17	foodImage.64	FOODEEG_Images\0647.jpg	YN	Left	Yes	1.1720750000095	0	374162	253
731.9453125	0	taste	response	2	77	17	foodImage.64	FOODEEG_Images\0647.jpg	YN	Left	Yes	1.1720750000095	0	374757	234
732.98828125	1	health	trialStart	2	78	18	foodImage.69	FOODEEG_Images\0693.jpg	YN	Left	Yes	0.9818496999942	0	375291	251
734.03125	2	health	foodImageDisplay	2	78	18	foodImage.69	FOODEEG_Images\0693.jpg	YN	Left	Yes	0.9818496999942	0	375825	252
736.09375	0.9818496999942	health	choicePhaseStart	2	78	18	foodImage.69	FOODEEG_Images\0693.jpg	YN	Left	Yes	0.9818496999942	0	376881	253
737.06640625	0	health	response	2	78	18	foodImage.69	FOODEEG_Images\0693.jpg	YN	Left	Yes	0.9818496999942	0	377379	234
738.119140625	1	taste	trialStart	2	79	19	foodImage.34	FOODEEG_Images\0339.jpg	NY	Right	Yes	1.42099549999693	0	377918	251
739.181640625	2	taste	foodImageDisplay	2	79	19	foodImage.34	FOODEEG_Images\0339.jpg	NY	Right	Yes	1.42099549999693	0	378462	252
741.24609375	1.42099549999693	taste	choicePhaseStart	2	79	19	foodImage.34	FOODEEG_Images\0339.jpg	NY	Right	Yes	1.42099549999693	0	379519	253
742.658203125	0	taste	response	2	79	19	foodImage.34	FOODEEG_Images\0339.jpg	NY	Right	Yes	1.42099549999693	0	380242	235
743.705078125	1	decision	trialStart	2	80	20	foodImage.91	FOODEEG_Images\0896.jpg	NY	Right	Yes	0.897419300003094	0	380778	251
744.76171875	2	decision	foodImageDisplay	2	80	20	foodImage.91	FOODEEG_Images\0896.jpg	NY	Right	Yes	0.897419300003094	0	381319	252
746.826171875	0.897419300003094	decision	choicePhaseStart	2	80	20	foodImage.91	FOODEEG_Images\0896.jpg	NY	Right	Yes	0.897419300003094	0	382376	253
747.712890625	0	decision	response	2	80	20	foodImage.91	FOODEEG_Images\0896.jpg	NY	Right	Yes	0.897419300003094	0	382830	235
748.755859375	1	health	trialStart	2	81	21	foodImage.32	FOODEEG_Images\0319.jpg	NY	Right	Yes	1.13073589999112	0	383364	251
749.798828125	2	health	foodImageDisplay	2	81	21	foodImage.32	FOODEEG_Images\0319.jpg	NY	Right	Yes	1.13073589999112	0	383898	252
751.86328125	1.13073589999112	health	choicePhaseStart	2	81	21	foodImage.32	FOODEEG_Images\0319.jpg	NY	Right	Yes	1.13073589999112	0	384955	253
752.984375	0	health	response	2	81	21	foodImage.32	FOODEEG_Images\0319.jpg	NY	Right	Yes	1.13073589999112	0	385529	235
754.02734375	1	decision	trialStart	2	82	22	foodImage.34	FOODEEG_Images\0339.jpg	NY	Right	Yes	0.925370400000247	0	386063	251
755.0859375	2	decision	foodImageDisplay	2	82	22	foodImage.34	FOODEEG_Images\0339.jpg	NY	Right	Yes	0.925370400000247	0	386605	252
757.1484375	0.925370400000247	decision	choicePhaseStart	2	82	22	foodImage.34	FOODEEG_Images\0339.jpg	NY	Right	Yes	0.925370400000247	0	387661	253
758.064453125	0	decision	response	2	82	22	foodImage.34	FOODEEG_Images\0339.jpg	NY	Right	Yes	0.925370400000247	0	388130	235
759.111328125	1	health	trialStart	2	83	23	foodImage.75	FOODEEG_Images\0763.jpg	NY	Right	Yes	1.00956880000012	0	388666	251
760.162109375	2	health	foodImageDisplay	2	83	23	foodImage.75	FOODEEG_Images\0763.jpg	NY	Right	Yes	1.00956880000012	0	389204	252
762.23046875	1.00956880000012	health	choicePhaseStart	2	83	23	foodImage.75	FOODEEG_Images\0763.jpg	NY	Right	Yes	1.00956880000012	0	390263	253
763.232421875	0	health	response	2	83	23	foodImage.75	FOODEEG_Images\0763.jpg	NY	Right	Yes	1.00956880000012	0	390776	235
764.275390625	1	decision	trialStart	2	84	24	foodImage.67	FOODEEG_Images\0679.jpg	YN	Left	Yes	0.740565400003106	0	391310	251
765.333984375	2	decision	foodImageDisplay	2	84	24	foodImage.67	FOODEEG_Images\0679.jpg	YN	Left	Yes	0.740565400003106	0	391852	252
767.3984375	0.740565400003106	decision	choicePhaseStart	2	84	24	foodImage.67	FOODEEG_Images\0679.jpg	YN	Left	Yes	0.740565400003106	0	392909	253
768.12890625	0	decision	response	2	84	24	foodImage.67	FOODEEG_Images\0679.jpg	YN	Left	Yes	0.740565400003106	0	393283	234
769.177734375	1	health	trialStart	2	85	25	foodImage.23	FOODEEG_Images\0244.jpg	YN	Left	Yes	1.55234520000522	0	393820	251
770.21875	2	health	foodImageDisplay	2	85	25	foodImage.23	FOODEEG_Images\0244.jpg	YN	Left	Yes	1.55234520000522	0	394353	252
772.28125	1.55234520000522	health	choicePhaseStart	2	85	25	foodImage.23	FOODEEG_Images\0244.jpg	YN	Left	Yes	1.55234520000522	0	395409	253
773.82421875	0	health	response	2	85	25	foodImage.23	FOODEEG_Images\0244.jpg	YN	Left	Yes	1.55234520000522	0	396199	234
774.869140625	1	health	trialStart	2	86	26	foodImage.43	FOODEEG_Images\0445.jpg	YN	Left	Yes	0.599438599994755	0	396734	251
775.9296875	2	health	foodImageDisplay	2	86	26	foodImage.43	FOODEEG_Images\0445.jpg	YN	Left	Yes	0.599438599994755	0	397277	252
777.994140625	0.599438599994755	health	choicePhaseStart	2	86	26	foodImage.43	FOODEEG_Images\0445.jpg	YN	Left	Yes	0.599438599994755	0	398334	253
778.583984375	0	health	response	2	86	26	foodImage.43	FOODEEG_Images\0445.jpg	YN	Left	Yes	0.599438599994755	0	398636	234
779.630859375	1	health	trialStart	2	87	27	foodImage.26	FOODEEG_Images\0262.jpg	YN	Left	Yes	0.666410599995288	0	399172	251
780.671875	2	health	foodImageDisplay	2	87	27	foodImage.26	FOODEEG_Images\0262.jpg	YN	Left	Yes	0.666410599995288	0	399705	252
782.734375	0.666410599995288	health	choicePhaseStart	2	87	27	foodImage.26	FOODEEG_Images\0262.jpg	YN	Left	Yes	0.666410599995288	0	400761	253
783.392578125	0	health	response	2	87	27	foodImage.26	FOODEEG_Images\0262.jpg	YN	Left	Yes	0.666410599995288	0	401098	234
784.435546875	1	taste	trialStart	2	88	28	foodImage.117	FOODEEG_Images\0925.jpg	NY	Left	No	1.20858379999117	0	401632	251
785.47265625	2	taste	foodImageDisplay	2	88	28	foodImage.117	FOODEEG_Images\0925.jpg	NY	Left	No	1.20858379999117	0	402163	252
787.537109375	1.20858379999117	taste	choicePhaseStart	2	88	28	foodImage.117	FOODEEG_Images\0925.jpg	NY	Left	No	1.20858379999117	0	403220	253
788.736328125	0	taste	response	2	88	28	foodImage.117	FOODEEG_Images\0925.jpg	NY	Left	No	1.20858379999117	0	403834	234
789.779296875	1	taste	trialStart	2	89	29	foodImage.118	FOODEEG_Images\0926.jpg	NY	Left	No	0.870910000012373	0	404368	251
790.818359375	2	taste	foodImageDisplay	2	89	29	foodImage.118	FOODEEG_Images\0926.jpg	NY	Left	No	0.870910000012373	0	404900	252
792.880859375	0.870910000012373	taste	choicePhaseStart	2	89	29	foodImage.118	FOODEEG_Images\0926.jpg	NY	Left	No	0.870910000012373	0	405956	253
793.744140625	0	taste	response	2	89	29	foodImage.118	FOODEEG_Images\0926.jpg	NY	Left	No	0.870910000012373	0	406398	234
794.787109375	1	health	trialStart	2	90	30	foodImage.79	FOODEEG_Images\0794.jpg	NY	Right	Yes	0.842868199993973	0	406932	251
795.83203125	2	health	foodImageDisplay	2	90	30	foodImage.79	FOODEEG_Images\0794.jpg	NY	Right	Yes	0.842868199993973	0	407467	252
797.89453125	0.842868199993973	health	choicePhaseStart	2	90	30	foodImage.79	FOODEEG_Images\0794.jpg	NY	Right	Yes	0.842868199993973	0	408523	253
798.7265625	0	health	response	2	90	30	foodImage.79	FOODEEG_Images\0794.jpg	NY	Right	Yes	0.842868199993973	0	408949	235
799.76953125	1	health	trialStart	2	91	31	foodImage.119	FOODEEG_Images\0927.jpg	YN	Right	No	0.680039400001988	0	409483	251
800.818359375	2	health	foodImageDisplay	2	91	31	foodImage.119	FOODEEG_Images\0927.jpg	YN	Right	No	0.680039400001988	0	410020	252
802.880859375	0.680039400001988	health	choicePhaseStart	2	91	31	foodImage.119	FOODEEG_Images\0927.jpg	YN	Right	No	0.680039400001988	0	411076	253
803.55078125	0	health	response	2	91	31	foodImage.119	FOODEEG_Images\0927.jpg	YN	Right	No	0.680039400001988	0	411419	235
804.59375	1	decision	trialStart	2	92	32	foodImage.47	FOODEEG_Images\0488.jpg	YN	Left	Yes	1.31507310000597	0	411953	251
805.634765625	2	decision	foodImageDisplay	2	92	32	foodImage.47	FOODEEG_Images\0488.jpg	YN	Left	Yes	1.31507310000597	0	412486	252
807.69921875	1.31507310000597	decision	choicePhaseStart	2	92	32	foodImage.47	FOODEEG_Images\0488.jpg	YN	Left	Yes	1.31507310000597	0	413543	253
809.0078125	0	decision	response	2	92	32	foodImage.47	FOODEEG_Images\0488.jpg	YN	Left	Yes	1.31507310000597	0	414213	234
810.05078125	1	health	trialStart	2	93	33	foodImage.114	FOODEEG_Images\0922.jpg	NY	Right	Yes	2.29460010000912	0	414747	251
811.087890625	2	health	foodImageDisplay	2	93	33	foodImage.114	FOODEEG_Images\0922.jpg	NY	Right	Yes	2.29460010000912	0	415278	252
813.154296875	2.29460010000912	health	choicePhaseStart	2	93	33	foodImage.114	FOODEEG_Images\0922.jpg	NY	Right	Yes	2.29460010000912	0	416336	253
815.439453125	0	health	response	2	93	33	foodImage.114	FOODEEG_Images\0922.jpg	NY	Right	Yes	2.29460010000912	0	417506	235
816.48046875	1	health	trialStart	2	94	34	foodImage.27	FOODEEG_Images\0263.jpg	YN	Left	Yes	0.933529300004011	0	418039	251
817.521484375	2	health	foodImageDisplay	2	94	34	foodImage.27	FOODEEG_Images\0263.jpg	YN	Left	Yes	0.933529300004011	0	418572	252
819.5859375	0.933529300004011	health	choicePhaseStart	2	94	34	foodImage.27	FOODEEG_Images\0263.jpg	YN	Left	Yes	0.933529300004011	0	419629	253
820.509765625	0	health	response	2	94	34	foodImage.27	FOODEEG_Images\0263.jpg	YN	Left	Yes	0.933529300004011	0	420102	234
821.552734375	1	taste	trialStart	2	95	35	foodImage.111	FOODEEG_Images\0919.jpg	NY	Left	No	1.0016353999963	0	420636	251
822.58984375	2	taste	foodImageDisplay	2	95	35	foodImage.111	FOODEEG_Images\0919.jpg	NY	Left	No	1.0016353999963	0	421167	252
824.654296875	1.0016353999963	taste	choicePhaseStart	2	95	35	foodImage.111	FOODEEG_Images\0919.jpg	NY	Left	No	1.0016353999963	0	422224	253
825.646484375	0	taste	response	2	95	35	foodImage.111	FOODEEG_Images\0919.jpg	NY	Left	No	1.0016353999963	0	422732	234
826.693359375	1	health	trialStart	2	96	36	foodImage.60	FOODEEG_Images\0614.jpg	NY	Right	Yes	1.0510448999994	0	423268	251
827.75	2	health	foodImageDisplay	2	96	36	foodImage.60	FOODEEG_Images\0614.jpg	NY	Right	Yes	1.0510448999994	0	423809	252
829.818359375	1.0510448999994	health	choicePhaseStart	2	96	36	foodImage.60	FOODEEG_Images\0614.jpg	NY	Right	Yes	1.0510448999994	0	424868	253
830.861328125	0	health	response	2	96	36	foodImage.60	FOODEEG_Images\0614.jpg	NY	Right	Yes	1.0510448999994	0	425402	235
831.90625	1	decision	trialStart	2	97	37	foodImage.27	FOODEEG_Images\0263.jpg	YN	Left	Yes	0.763619500008645	0	425937	251
832.947265625	2	decision	foodImageDisplay	2	97	37	foodImage.27	FOODEEG_Images\0263.jpg	YN	Left	Yes	0.763619500008645	0	426470	252
835.01171875	0.763619500008645	decision	choicePhaseStart	2	97	37	foodImage.27	FOODEEG_Images\0263.jpg	YN	Left	Yes	0.763619500008645	0	427527	253
835.765625	0	decision	response	2	97	37	foodImage.27	FOODEEG_Images\0263.jpg	YN	Left	Yes	0.763619500008645	0	427913	234
836.810546875	1	taste	trialStart	2	98	38	foodImage.28	FOODEEG_Images\0273.jpg	NY	Right	Yes	0.659998699993594	0	428448	251
837.8515625	2	taste	foodImageDisplay	2	98	38	foodImage.28	FOODEEG_Images\0273.jpg	NY	Right	Yes	0.659998699993594	0	428981	252
839.9140625	0.659998699993594	taste	choicePhaseStart	2	98	38	foodImage.28	FOODEEG_Images\0273.jpg	NY	Right	Yes	0.659998699993594	0	430037	253
840.56640625	0	taste	response	2	98	38	foodImage.28	FOODEEG_Images\0273.jpg	NY	Right	Yes	0.659998699993594	0	430371	235
841.609375	1	taste	trialStart	2	99	39	foodImage.26	FOODEEG_Images\0262.jpg	YN	Left	Yes	1.37076490001346	0	430905	251
842.65234375	2	taste	foodImageDisplay	2	99	39	foodImage.26	FOODEEG_Images\0262.jpg	YN	Left	Yes	1.37076490001346	0	431439	252
844.716796875	1.37076490001346	taste	choicePhaseStart	2	99	39	foodImage.26	FOODEEG_Images\0262.jpg	YN	Left	Yes	1.37076490001346	0	432496	253
846.078125	0	taste	response	2	99	39	foodImage.26	FOODEEG_Images\0262.jpg	YN	Left	Yes	1.37076490001346	0	433193	234
847.12109375	1	health	trialStart	2	100	40	foodImage.91	FOODEEG_Images\0896.jpg	YN	Left	Yes	1.99633199999516	0	433727	251
848.1796875	2	health	foodImageDisplay	2	100	40	foodImage.91	FOODEEG_Images\0896.jpg	YN	Left	Yes	1.99633199999516	0	434269	252
850.2421875	1.99633199999516	health	choicePhaseStart	2	100	40	foodImage.91	FOODEEG_Images\0896.jpg	YN	Left	Yes	1.99633199999516	0	435325	253
852.228515625	0	health	response	2	100	40	foodImage.91	FOODEEG_Images\0896.jpg	YN	Left	Yes	1.99633199999516	0	436342	234
853.271484375	1	decision	trialStart	2	101	41	foodImage.109	FOODEEG_Images\0917.jpg	YN	Left	Yes	3.74535510000715	0	436876	251
854.310546875	2	decision	foodImageDisplay	2	101	41	foodImage.109	FOODEEG_Images\0917.jpg	YN	Left	Yes	3.74535510000715	0	437408	252
856.373046875	3.74535510000715	decision	choicePhaseStart	2	101	41	foodImage.109	FOODEEG_Images\0917.jpg	YN	Left	Yes	3.74535510000715	0	438464	253
860.109375	0	decision	response	2	101	41	foodImage.109	FOODEEG_Images\0917.jpg	YN	Left	Yes	3.74535510000715	0	440377	234
861.154296875	1	taste	trialStart	2	102	42	foodImage.97	FOODEEG_Images\0905.jpg	NY	Right	Yes	1.19546360000095	0	440912	251
862.19140625	2	taste	foodImageDisplay	2	102	42	foodImage.97	FOODEEG_Images\0905.jpg	NY	Right	Yes	1.19546360000095	0	441443	252
864.255859375	1.19546360000095	taste	choicePhaseStart	2	102	42	foodImage.97	FOODEEG_Images\0905.jpg	NY	Right	Yes	1.19546360000095	0	442500	253
865.4453125	0	taste	response	2	102	42	foodImage.97	FOODEEG_Images\0905.jpg	NY	Right	Yes	1.19546360000095	0	443109	235
866.48828125	1	decision	trialStart	2	103	43	foodImage.42	FOODEEG_Images\0438.jpg	YN	Left	Yes	0.868683300010161	0	443643	251
867.576171875	2	decision	foodImageDisplay	2	103	43	foodImage.42	FOODEEG_Images\0438.jpg	YN	Left	Yes	0.868683300010161	0	444200	252
869.638671875	0.868683300010161	decision	choicePhaseStart	2	103	43	foodImage.42	FOODEEG_Images\0438.jpg	YN	Left	Yes	0.868683300010161	0	445256	253
870.5	0	decision	response	2	103	43	foodImage.42	FOODEEG_Images\0438.jpg	YN	Left	Yes	0.868683300010161	0	445697	234
871.54296875	1	health	trialStart	2	104	44	foodImage.15	FOODEEG_Images\0189.jpg	YN	Right	No	1.07595840000431	0	446231	251
872.6015625	2	health	foodImageDisplay	2	104	44	foodImage.15	FOODEEG_Images\0189.jpg	YN	Right	No	1.07595840000431	0	446773	252
874.671875	1.07595840000431	health	choicePhaseStart	2	104	44	foodImage.15	FOODEEG_Images\0189.jpg	YN	Right	No	1.07595840000431	0	447833	253
875.740234375	0	health	response	2	104	44	foodImage.15	FOODEEG_Images\0189.jpg	YN	Right	No	1.07595840000431	0	448380	235
876.783203125	1	decision	trialStart	2	105	45	foodImage.35	FOODEEG_Images\0350.jpg	NY	Right	Yes	0.833023199986201	0	448914	251
877.8203125	2	decision	foodImageDisplay	2	105	45	foodImage.35	FOODEEG_Images\0350.jpg	NY	Right	Yes	0.833023199986201	0	449445	252
879.884765625	0.833023199986201	decision	choicePhaseStart	2	105	45	foodImage.35	FOODEEG_Images\0350.jpg	NY	Right	Yes	0.833023199986201	0	450502	253
880.70703125	0	decision	response	2	105	45	foodImage.35	FOODEEG_Images\0350.jpg	NY	Right	Yes	0.833023199986201	0	450923	235
881.751953125	1	taste	trialStart	2	106	46	foodImage.103	FOODEEG_Images\0911.jpg	YN	Right	No	0.997661899993545	0	451458	251
882.79296875	2	taste	foodImageDisplay	2	106	46	foodImage.103	FOODEEG_Images\0911.jpg	YN	Right	No	0.997661899993545	0	451991	252
884.85546875	0.997661899993545	taste	choicePhaseStart	2	106	46	foodImage.103	FOODEEG_Images\0911.jpg	YN	Right	No	0.997661899993545	0	453047	253
885.84375	0	taste	response	2	106	46	foodImage.103	FOODEEG_Images\0911.jpg	YN	Right	No	0.997661899993545	0	453553	235
886.88671875	1	taste	trialStart	2	107	47	foodImage.108	FOODEEG_Images\0916.jpg	NY	Left	No	0.729463600000599	0	454087	251
887.923828125	2	taste	foodImageDisplay	2	107	47	foodImage.108	FOODEEG_Images\0916.jpg	NY	Left	No	0.729463600000599	0	454618	252
889.98828125	0.729463600000599	taste	choicePhaseStart	2	107	47	foodImage.108	FOODEEG_Images\0916.jpg	NY	Left	No	0.729463600000599	0	455675	253
890.70703125	0	taste	response	2	107	47	foodImage.108	FOODEEG_Images\0916.jpg	NY	Left	No	0.729463600000599	0	456043	234
891.751953125	1	taste	trialStart	2	108	48	foodImage.32	FOODEEG_Images\0319.jpg	NY	Right	Yes	0.628719600004843	0	456578	251
892.802734375	2	taste	foodImageDisplay	2	108	48	foodImage.32	FOODEEG_Images\0319.jpg	NY	Right	Yes	0.628719600004843	0	457116	252
894.865234375	0.628719600004843	taste	choicePhaseStart	2	108	48	foodImage.32	FOODEEG_Images\0319.jpg	NY	Right	Yes	0.628719600004843	0	458172	253
895.484375	0	taste	response	2	108	48	foodImage.32	FOODEEG_Images\0319.jpg	NY	Right	Yes	0.628719600004843	0	458489	235
896.52734375	1	health	trialStart	2	109	49	foodImage.21	FOODEEG_Images\0234.jpg	NY	Right	Yes	0.995859100003145	0	459023	251
897.609375	2	health	foodImageDisplay	2	109	49	foodImage.21	FOODEEG_Images\0234.jpg	NY	Right	Yes	0.995859100003145	0	459577	252
899.671875	0.995859100003145	health	choicePhaseStart	2	109	49	foodImage.21	FOODEEG_Images\0234.jpg	NY	Right	Yes	0.995859100003145	0	460633	253
900.66015625	0	health	response	2	109	49	foodImage.21	FOODEEG_Images\0234.jpg	NY	Right	Yes	0.995859100003145	0	461139	235
901.69921875	1	taste	trialStart	2	110	50	foodImage.37	FOODEEG_Images\0359.jpg	YN	Left	Yes	0.927930399993784	0	461671	251
902.740234375	2	taste	foodImageDisplay	2	110	50	foodImage.37	FOODEEG_Images\0359.jpg	YN	Left	Yes	0.927930399993784	0	462204	252
904.8046875	0.927930399993784	taste	choicePhaseStart	2	110	50	foodImage.37	FOODEEG_Images\0359.jpg	YN	Left	Yes	0.927930399993784	0	463261	253
905.72265625	0	taste	response	2	110	50	foodImage.37	FOODEEG_Images\0359.jpg	YN	Left	Yes	0.927930399993784	0	463731	234
906.771484375	1	taste	trialStart	2	111	51	foodImage.56	FOODEEG_Images\0586.jpg	YN	Left	Yes	0.787189400012721	0	464268	251
907.814453125	2	taste	foodImageDisplay	2	111	51	foodImage.56	FOODEEG_Images\0586.jpg	YN	Left	Yes	0.787189400012721	0	464802	252
909.880859375	0.787189400012721	taste	choicePhaseStart	2	111	51	foodImage.56	FOODEEG_Images\0586.jpg	YN	Left	Yes	0.787189400012721	0	465860	253
910.658203125	0	taste	response	2	111	51	foodImage.56	FOODEEG_Images\0586.jpg	YN	Left	Yes	0.787189400012721	0	466258	234
911.701171875	1	health	trialStart	2	112	52	foodImage.35	FOODEEG_Images\0350.jpg	YN	Right	No	1.120639700006	0	466792	251
912.740234375	2	health	foodImageDisplay	2	112	52	foodImage.35	FOODEEG_Images\0350.jpg	YN	Right	No	1.120639700006	0	467324	252
914.802734375	1.120639700006	health	choicePhaseStart	2	112	52	foodImage.35	FOODEEG_Images\0350.jpg	YN	Right	No	1.120639700006	0	468380	253
915.9140625	0	health	response	2	112	52	foodImage.35	FOODEEG_Images\0350.jpg	YN	Right	No	1.120639700006	0	468949	235
916.95703125	1	taste	trialStart	2	113	53	foodImage.14	FOODEEG_Images\0188.jpg	YN	Left	Yes	0.90750339999795	0	469483	251
918.015625	2	taste	foodImageDisplay	2	113	53	foodImage.14	FOODEEG_Images\0188.jpg	YN	Left	Yes	0.90750339999795	0	470025	252
920.08203125	0.90750339999795	taste	choicePhaseStart	2	113	53	foodImage.14	FOODEEG_Images\0188.jpg	YN	Left	Yes	0.90750339999795	0	471083	253
920.978515625	0	taste	response	2	113	53	foodImage.14	FOODEEG_Images\0188.jpg	YN	Left	Yes	0.90750339999795	0	471542	234
922.0234375	1	decision	trialStart	2	114	54	foodImage.92	FOODEEG_Images\0900.jpg	YN	Right	No	0.870783299993491	0	472077	251
923.060546875	2	decision	foodImageDisplay	2	114	54	foodImage.92	FOODEEG_Images\0900.jpg	YN	Right	No	0.870783299993491	0	472608	252
925.125	0.870783299993491	decision	choicePhaseStart	2	114	54	foodImage.92	FOODEEG_Images\0900.jpg	YN	Right	No	0.870783299993491	0	473665	253
925.986328125	0	decision	response	2	114	54	foodImage.92	FOODEEG_Images\0900.jpg	YN	Right	No	0.870783299993491	0	474106	235
927.029296875	1	taste	trialStart	2	115	55	foodImage.96	FOODEEG_Images\0904.jpg	YN	Left	Yes	0.910426800008281	0	474640	251
928.068359375	2	taste	foodImageDisplay	2	115	55	foodImage.96	FOODEEG_Images\0904.jpg	YN	Left	Yes	0.910426800008281	0	475172	252
930.130859375	0.910426800008281	taste	choicePhaseStart	2	115	55	foodImage.96	FOODEEG_Images\0904.jpg	YN	Left	Yes	0.910426800008281	0	476228	253
931.03515625	0	taste	response	2	115	55	foodImage.96	FOODEEG_Images\0904.jpg	YN	Left	Yes	0.910426800008281	0	476691	234
932.078125	1	taste	trialStart	2	116	56	foodImage.52	FOODEEG_Images\0539.jpg	YN	Left	Yes	0.963569600004121	0	477225	251
933.13671875	2	taste	foodImageDisplay	2	116	56	foodImage.52	FOODEEG_Images\0539.jpg	YN	Left	Yes	0.963569600004121	0	477767	252
935.19921875	0.963569600004121	taste	choicePhaseStart	2	116	56	foodImage.52	FOODEEG_Images\0539.jpg	YN	Left	Yes	0.963569600004121	0	478823	253
936.154296875	0	taste	response	2	116	56	foodImage.52	FOODEEG_Images\0539.jpg	YN	Left	Yes	0.963569600004121	0	479312	234
937.197265625	1	decision	trialStart	2	117	57	foodImage.87	FOODEEG_Images\0873.jpg	NY	Left	No	0.964900500010117	0	479846	251
938.255859375	2	decision	foodImageDisplay	2	117	57	foodImage.87	FOODEEG_Images\0873.jpg	NY	Left	No	0.964900500010117	0	480388	252
940.318359375	0.964900500010117	decision	choicePhaseStart	2	117	57	foodImage.87	FOODEEG_Images\0873.jpg	NY	Left	No	0.964900500010117	0	481444	253
941.2734375	0	decision	response	2	117	57	foodImage.87	FOODEEG_Images\0873.jpg	NY	Left	No	0.964900500010117	0	481933	234
942.31640625	1	taste	trialStart	2	118	58	foodImage.49	FOODEEG_Images\0515.jpg	YN	Left	Yes	1.99702979999711	0	482467	251
943.359375	2	taste	foodImageDisplay	2	118	58	foodImage.49	FOODEEG_Images\0515.jpg	YN	Left	Yes	1.99702979999711	0	483001	252
945.421875	1.99702979999711	taste	choicePhaseStart	2	118	58	foodImage.49	FOODEEG_Images\0515.jpg	YN	Left	Yes	1.99702979999711	0	484057	253
947.41015625	0	taste	response	2	118	58	foodImage.49	FOODEEG_Images\0515.jpg	YN	Left	Yes	1.99702979999711	0	485075	234
948.453125	1	taste	trialStart	2	119	59	foodImage.106	FOODEEG_Images\0914.jpg	YN	Right	No	0.845682400002261	0	485609	251
949.490234375	2	taste	foodImageDisplay	2	119	59	foodImage.106	FOODEEG_Images\0914.jpg	YN	Right	No	0.845682400002261	0	486140	252
951.5546875	0.845682400002261	taste	choicePhaseStart	2	119	59	foodImage.106	FOODEEG_Images\0914.jpg	YN	Right	No	0.845682400002261	0	487197	253
952.392578125	0	taste	response	2	119	59	foodImage.106	FOODEEG_Images\0914.jpg	YN	Right	No	0.845682400002261	0	487626	235
953.431640625	1	health	trialStart	2	120	60	foodImage.12	FOODEEG_Images\0181.jpg	YN	Left	Yes	1.16717450000579	0	488158	251
954.47265625	2	health	foodImageDisplay	2	120	60	foodImage.12	FOODEEG_Images\0181.jpg	YN	Left	Yes	1.16717450000579	0	488691	252
956.537109375	1.16717450000579	health	choicePhaseStart	2	120	60	foodImage.12	FOODEEG_Images\0181.jpg	YN	Left	Yes	1.16717450000579	0	489748	253
957.697265625	0	health	response	2	120	60	foodImage.12	FOODEEG_Images\0181.jpg	YN	Left	Yes	1.16717450000579	0	490342	234
959.7421875	5.744140625	n/a	blockEnd	n/a	n/a	n/a	n/a	n/a	n/a	n/a	n/a	n/a	n/a	491389	254
965.486328125	2	n/a	blockStart	3	n/a	n/a	n/a	n/a	n/a	n/a	n/a	n/a	n/a	494330	250
967.51953125	1	taste	trialStart	3	121	1	foodImage.76	FOODEEG_Images\0766.jpg	NY	Left	No	1.05422890000045	0	495371	251
968.5625	2	taste	foodImageDisplay	3	121	1	foodImage.76	FOODEEG_Images\0766.jpg	NY	Left	No	1.05422890000045	0	495905	252
970.626953125	1.05422890000045	taste	choicePhaseStart	3	121	1	foodImage.76	FOODEEG_Images\0766.jpg	NY	Left	No	1.05422890000045	0	496962	253
971.671875	0	taste	response	3	121	1	foodImage.76	FOODEEG_Images\0766.jpg	NY	Left	No	1.05422890000045	0	497497	234
972.71484375	1	taste	trialStart	3	122	2	foodImage.77	FOODEEG_Images\0771.jpg	YN	Left	Yes	0.926980300006107	0	498031	251
973.779296875	2	taste	foodImageDisplay	3	122	2	foodImage.77	FOODEEG_Images\0771.jpg	YN	Left	Yes	0.926980300006107	0	498576	252
975.841796875	0.926980300006107	taste	choicePhaseStart	3	122	2	foodImage.77	FOODEEG_Images\0771.jpg	YN	Left	Yes	0.926980300006107	0	499632	253
976.759765625	0	taste	response	3	122	2	foodImage.77	FOODEEG_Images\0771.jpg	YN	Left	Yes	0.926980300006107	0	500102	234
977.80859375	1	health	trialStart	3	123	3	foodImage.71	FOODEEG_Images\0713.jpg	YN	Right	No	0.927728399998159	0	500639	251
978.849609375	2	health	foodImageDisplay	3	123	3	foodImage.71	FOODEEG_Images\0713.jpg	YN	Right	No	0.927728399998159	0	501172	252
980.9140625	0.927728399998159	health	choicePhaseStart	3	123	3	foodImage.71	FOODEEG_Images\0713.jpg	YN	Right	No	0.927728399998159	0	502229	253
981.83203125	0	health	response	3	123	3	foodImage.71	FOODEEG_Images\0713.jpg	YN	Right	No	0.927728399998159	0	502699	235
982.87109375	1	taste	trialStart	3	124	4	foodImage.112	FOODEEG_Images\0920.jpg	YN	Right	No	1.00923699999112	0	503231	251
983.927734375	2	taste	foodImageDisplay	3	124	4	foodImage.112	FOODEEG_Images\0920.jpg	YN	Right	No	1.00923699999112	0	503772	252
985.9921875	1.00923699999112	taste	choicePhaseStart	3	124	4	foodImage.112	FOODEEG_Images\0920.jpg	YN	Right	No	1.00923699999112	0	504829	253
986.9921875	0	taste	response	3	124	4	foodImage.112	FOODEEG_Images\0920.jpg	YN	Right	No	1.00923699999112	0	505341	235
988.03515625	1	health	trialStart	3	125	5	foodImage.66	FOODEEG_Images\0676.jpg	NY	Left	No	0.997072599988314	0	505875	251
989.076171875	2	health	foodImageDisplay	3	125	5	foodImage.66	FOODEEG_Images\0676.jpg	NY	Left	No	0.997072599988314	0	506408	252
991.140625	0.997072599988314	health	choicePhaseStart	3	125	5	foodImage.66	FOODEEG_Images\0676.jpg	NY	Left	No	0.997072599988314	0	507465	253
992.126953125	0	health	response	3	125	5	foodImage.66	FOODEEG_Images\0676.jpg	NY	Left	No	0.997072599988314	0	507970	234
993.171875	1	taste	trialStart	3	126	6	foodImage.68	FOODEEG_Images\0685.jpg	NY	Right	Yes	0.803816300001927	0	508505	251
994.267578125	2	taste	foodImageDisplay	3	126	6	foodImage.68	FOODEEG_Images\0685.jpg	NY	Right	Yes	0.803816300001927	0	509066	252
996.33203125	0.803816300001927	taste	choicePhaseStart	3	126	6	foodImage.68	FOODEEG_Images\0685.jpg	NY	Right	Yes	0.803816300001927	0	510123	253
997.126953125	0	taste	response	3	126	6	foodImage.68	FOODEEG_Images\0685.jpg	NY	Right	Yes	0.803816300001927	0	510530	235
998.169921875	1	decision	trialStart	3	127	7	foodImage.12	FOODEEG_Images\0181.jpg	YN	Left	Yes	0.887257099995622	0	511064	251
999.232421875	2	decision	foodImageDisplay	3	127	7	foodImage.12	FOODEEG_Images\0181.jpg	YN	Left	Yes	0.887257099995622	0	511608	252
1001.294921875	0.887257099995622	decision	choicePhaseStart	3	127	7	foodImage.12	FOODEEG_Images\0181.jpg	YN	Left	Yes	0.887257099995622	0	512664	253
1002.17578125	0	decision	response	3	127	7	foodImage.12	FOODEEG_Images\0181.jpg	YN	Left	Yes	0.887257099995622	0	513115	234
1003.21875	1	decision	trialStart	3	128	8	foodImage.11	FOODEEG_Images\0180.jpg	NY	Right	Yes	0.708776400002535	0	513649	251
1004.26953125	2	decision	foodImageDisplay	3	128	8	foodImage.11	FOODEEG_Images\0180.jpg	NY	Right	Yes	0.708776400002535	0	514187	252
1006.33203125	0.708776400002535	decision	choicePhaseStart	3	128	8	foodImage.11	FOODEEG_Images\0180.jpg	NY	Right	Yes	0.708776400002535	0	515243	253
1007.03125	0	decision	response	3	128	8	foodImage.11	FOODEEG_Images\0180.jpg	NY	Right	Yes	0.708776400002535	0	515601	235
1008.07421875	1	taste	trialStart	3	129	9	foodImage.100	FOODEEG_Images\0908.jpg	NY	Left	No	0.68337139999494	0	516135	251
1009.12890625	2	taste	foodImageDisplay	3	129	9	foodImage.100	FOODEEG_Images\0908.jpg	NY	Left	No	0.68337139999494	0	516675	252
1011.197265625	0.68337139999494	taste	choicePhaseStart	3	129	9	foodImage.100	FOODEEG_Images\0908.jpg	NY	Left	No	0.68337139999494	0	517734	253
1011.87109375	0	taste	response	3	129	9	foodImage.100	FOODEEG_Images\0908.jpg	NY	Left	No	0.68337139999494	0	518079	234
1012.9140625	1	health	trialStart	3	130	10	foodImage.1	FOODEEG_Images\0004.jpg	YN	Right	No	0.883812800006126	0	518613	251
1013.970703125	2	health	foodImageDisplay	3	130	10	foodImage.1	FOODEEG_Images\0004.jpg	YN	Right	No	0.883812800006126	0	519154	252
1016.03515625	0.883812800006126	health	choicePhaseStart	3	130	10	foodImage.1	FOODEEG_Images\0004.jpg	YN	Right	No	0.883812800006126	0	520211	253
1016.91015625	0	health	response	3	130	10	foodImage.1	FOODEEG_Images\0004.jpg	YN	Right	No	0.883812800006126	0	520659	235
1017.953125	1	health	trialStart	3	131	11	foodImage.93	FOODEEG_Images\0901.jpg	NY	Left	No	1.43901440000627	0	521193	251
1019.009765625	2	health	foodImageDisplay	3	131	11	foodImage.93	FOODEEG_Images\0901.jpg	NY	Left	No	1.43901440000627	0	521734	252
1021.07421875	1.43901440000627	health	choicePhaseStart	3	131	11	foodImage.93	FOODEEG_Images\0901.jpg	NY	Left	No	1.43901440000627	0	522791	253
1022.501953125	0	health	response	3	131	11	foodImage.93	FOODEEG_Images\0901.jpg	NY	Left	No	1.43901440000627	0	523522	234
1023.546875	1	decision	trialStart	3	132	12	foodImage.58	FOODEEG_Images\0605.jpg	YN	Left	Yes	1.14719499999774	0	524057	251
1024.62890625	2	decision	foodImageDisplay	3	132	12	foodImage.58	FOODEEG_Images\0605.jpg	YN	Left	Yes	1.14719499999774	0	524611	252
1026.69140625	1.14719499999774	decision	choicePhaseStart	3	132	12	foodImage.58	FOODEEG_Images\0605.jpg	YN	Left	Yes	1.14719499999774	0	525667	253
1027.830078125	0	decision	response	3	132	12	foodImage.58	FOODEEG_Images\0605.jpg	YN	Left	Yes	1.14719499999774	0	526250	234
1028.873046875	1	taste	trialStart	3	133	13	foodImage.63	FOODEEG_Images\0645.jpg	YN	Left	Yes	1.11430719999771	0	526784	251
1029.916015625	2	taste	foodImageDisplay	3	133	13	foodImage.63	FOODEEG_Images\0645.jpg	YN	Left	Yes	1.11430719999771	0	527318	252
1031.978515625	1.11430719999771	taste	choicePhaseStart	3	133	13	foodImage.63	FOODEEG_Images\0645.jpg	YN	Left	Yes	1.11430719999771	0	528374	253
1033.0859375	0	taste	response	3	133	13	foodImage.63	FOODEEG_Images\0645.jpg	YN	Left	Yes	1.11430719999771	0	528941	234
1034.12890625	1	health	trialStart	3	134	14	foodImage.17	FOODEEG_Images\0199.jpg	YN	Left	Yes	0.970235300002969	0	529475	251
1035.171875	2	health	foodImageDisplay	3	134	14	foodImage.17	FOODEEG_Images\0199.jpg	YN	Left	Yes	0.970235300002969	0	530009	252
1037.234375	0.970235300002969	health	choicePhaseStart	3	134	14	foodImage.17	FOODEEG_Images\0199.jpg	YN	Left	Yes	0.970235300002969	0	531065	253
1038.197265625	0	health	response	3	134	14	foodImage.17	FOODEEG_Images\0199.jpg	YN	Left	Yes	0.970235300002969	0	531558	234
1039.240234375	1	decision	trialStart	3	135	15	foodImage.39	FOODEEG_Images\0367.jpg	NY	Right	Yes	0.759533100004774	0	532092	251
1040.279296875	2	decision	foodImageDisplay	3	135	15	foodImage.39	FOODEEG_Images\0367.jpg	NY	Right	Yes	0.759533100004774	0	532624	252
1042.34375	0.759533100004774	decision	choicePhaseStart	3	135	15	foodImage.39	FOODEEG_Images\0367.jpg	NY	Right	Yes	0.759533100004774	0	533681	253
1043.09375	0	decision	response	3	135	15	foodImage.39	FOODEEG_Images\0367.jpg	NY	Right	Yes	0.759533100004774	0	534065	235
1044.13671875	1	health	trialStart	3	136	16	foodImage.68	FOODEEG_Images\0685.jpg	YN	Right	No	1.0600173999992	0	534599	251
1045.212890625	2	health	foodImageDisplay	3	136	16	foodImage.68	FOODEEG_Images\0685.jpg	YN	Right	No	1.0600173999992	0	535150	252
1047.28125	1.0600173999992	health	choicePhaseStart	3	136	16	foodImage.68	FOODEEG_Images\0685.jpg	YN	Right	No	1.0600173999992	0	536209	253
1048.333984375	0	health	response	3	136	16	foodImage.68	FOODEEG_Images\0685.jpg	YN	Right	No	1.0600173999992	0	536748	235
1049.376953125	1	taste	trialStart	3	137	17	foodImage.69	FOODEEG_Images\0693.jpg	NY	Right	Yes	0.804643100011162	0	537282	251
1050.419921875	2	taste	foodImageDisplay	3	137	17	foodImage.69	FOODEEG_Images\0693.jpg	NY	Right	Yes	0.804643100011162	0	537816	252
1052.482421875	0.804643100011162	taste	choicePhaseStart	3	137	17	foodImage.69	FOODEEG_Images\0693.jpg	NY	Right	Yes	0.804643100011162	0	538872	253
1053.27734375	0	taste	response	3	137	17	foodImage.69	FOODEEG_Images\0693.jpg	NY	Right	Yes	0.804643100011162	0	539279	235
1054.326171875	1	decision	trialStart	3	138	18	foodImage.108	FOODEEG_Images\0916.jpg	YN	Right	No	0.824769099999685	0	539816	251
1055.375	2	decision	foodImageDisplay	3	138	18	foodImage.108	FOODEEG_Images\0916.jpg	YN	Right	No	0.824769099999685	0	540353	252
1057.4375	0.824769099999685	decision	choicePhaseStart	3	138	18	foodImage.108	FOODEEG_Images\0916.jpg	YN	Right	No	0.824769099999685	0	541409	253
1058.25390625	0	decision	response	3	138	18	foodImage.108	FOODEEG_Images\0916.jpg	YN	Right	No	0.824769099999685	0	541827	235
1059.296875	1	decision	trialStart	3	139	19	foodImage.105	FOODEEG_Images\0913.jpg	NY	Left	No	1.07624139999098	0	542361	251
1060.3359375	2	decision	foodImageDisplay	3	139	19	foodImage.105	FOODEEG_Images\0913.jpg	NY	Left	No	1.07624139999098	0	542893	252
1062.3984375	1.07624139999098	decision	choicePhaseStart	3	139	19	foodImage.105	FOODEEG_Images\0913.jpg	NY	Left	No	1.07624139999098	0	543949	253
1063.46875	0	decision	response	3	139	19	foodImage.105	FOODEEG_Images\0913.jpg	NY	Left	No	1.07624139999098	0	544497	234
1064.51171875	1	taste	trialStart	3	140	20	foodImage.19	FOODEEG_Images\0225.jpg	YN	Left	Yes	0.880046599995694	0	545031	251
1065.556640625	2	taste	foodImageDisplay	3	140	20	foodImage.19	FOODEEG_Images\0225.jpg	YN	Left	Yes	0.880046599995694	0	545566	252
1067.619140625	0.880046599995694	taste	choicePhaseStart	3	140	20	foodImage.19	FOODEEG_Images\0225.jpg	YN	Left	Yes	0.880046599995694	0	546622	253
1068.4921875	0	taste	response	3	140	20	foodImage.19	FOODEEG_Images\0225.jpg	YN	Left	Yes	0.880046599995694	0	547069	234
1069.53515625	1	health	trialStart	3	141	21	foodImage.96	FOODEEG_Images\0904.jpg	NY	Right	Yes	1.17791229998693	0	547603	251
1070.576171875	2	health	foodImageDisplay	3	141	21	foodImage.96	FOODEEG_Images\0904.jpg	NY	Right	Yes	1.17791229998693	0	548136	252
1072.64453125	1.17791229998693	health	choicePhaseStart	3	141	21	foodImage.96	FOODEEG_Images\0904.jpg	NY	Right	Yes	1.17791229998693	0	549195	253
1073.8125	0	health	response	3	141	21	foodImage.96	FOODEEG_Images\0904.jpg	NY	Right	Yes	1.17791229998693	0	549793	235
1074.85546875	1	decision	trialStart	3	142	22	foodImage.77	FOODEEG_Images\0771.jpg	YN	Left	Yes	0.712980899988906	0	550327	251
1075.91015625	2	decision	foodImageDisplay	3	142	22	foodImage.77	FOODEEG_Images\0771.jpg	YN	Left	Yes	0.712980899988906	0	550867	252
1077.978515625	0.712980899988906	decision	choicePhaseStart	3	142	22	foodImage.77	FOODEEG_Images\0771.jpg	YN	Left	Yes	0.712980899988906	0	551926	253
1078.68359375	0	decision	response	3	142	22	foodImage.77	FOODEEG_Images\0771.jpg	YN	Left	Yes	0.712980899988906	0	552287	234
1079.7265625	1	decision	trialStart	3	143	23	foodImage.74	FOODEEG_Images\0752.jpg	NY	Right	Yes	0.761652500004857	0	552821	251
1080.771484375	2	decision	foodImageDisplay	3	143	23	foodImage.74	FOODEEG_Images\0752.jpg	NY	Right	Yes	0.761652500004857	0	553356	252
1082.8359375	0.761652500004857	decision	choicePhaseStart	3	143	23	foodImage.74	FOODEEG_Images\0752.jpg	NY	Right	Yes	0.761652500004857	0	554413	253
1083.587890625	0	decision	response	3	143	23	foodImage.74	FOODEEG_Images\0752.jpg	NY	Right	Yes	0.761652500004857	0	554798	235
1084.630859375	1	taste	trialStart	3	144	24	foodImage.3	FOODEEG_Images\0046.jpg	YN	Left	Yes	0.620185699997819	0	555332	251
1085.673828125	2	taste	foodImageDisplay	3	144	24	foodImage.3	FOODEEG_Images\0046.jpg	YN	Left	Yes	0.620185699997819	0	555866	252
1087.736328125	0.620185699997819	taste	choicePhaseStart	3	144	24	foodImage.3	FOODEEG_Images\0046.jpg	YN	Left	Yes	0.620185699997819	0	556922	253
1088.34765625	0	taste	response	3	144	24	foodImage.3	FOODEEG_Images\0046.jpg	YN	Left	Yes	0.620185699997819	0	557235	234
1089.390625	1	health	trialStart	3	145	25	foodImage.103	FOODEEG_Images\0911.jpg	NY	Left	No	1.16807130000961	0	557769	251
1090.4296875	2	health	foodImageDisplay	3	145	25	foodImage.103	FOODEEG_Images\0911.jpg	NY	Left	No	1.16807130000961	0	558301	252
1092.494140625	1.16807130000961	health	choicePhaseStart	3	145	25	foodImage.103	FOODEEG_Images\0911.jpg	NY	Left	No	1.16807130000961	0	559358	253
1093.65234375	0	health	response	3	145	25	foodImage.103	FOODEEG_Images\0911.jpg	NY	Left	No	1.16807130000961	0	559951	234
1094.6953125	1	health	trialStart	3	146	26	foodImage.90	FOODEEG_Images\0890.jpg	YN	Left	Yes	0.987002200010465	0	560485	251
1095.775390625	2	health	foodImageDisplay	3	146	26	foodImage.90	FOODEEG_Images\0890.jpg	YN	Left	Yes	0.987002200010465	0	561038	252
1097.841796875	0.987002200010465	health	choicePhaseStart	3	146	26	foodImage.90	FOODEEG_Images\0890.jpg	YN	Left	Yes	0.987002200010465	0	562096	253
1098.8203125	0	health	response	3	146	26	foodImage.90	FOODEEG_Images\0890.jpg	YN	Left	Yes	0.987002200010465	0	562597	234
1099.86328125	1	taste	trialStart	3	147	27	foodImage.84	FOODEEG_Images\0830.jpg	NY	Right	Yes	1.03473420000228	0	563131	251
1100.91796875	2	taste	foodImageDisplay	3	147	27	foodImage.84	FOODEEG_Images\0830.jpg	NY	Right	Yes	1.03473420000228	0	563671	252
1102.984375	1.03473420000228	taste	choicePhaseStart	3	147	27	foodImage.84	FOODEEG_Images\0830.jpg	NY	Right	Yes	1.03473420000228	0	564729	253
1104.01171875	0	taste	response	3	147	27	foodImage.84	FOODEEG_Images\0830.jpg	NY	Right	Yes	1.03473420000228	0	565255	235
1105.05078125	1	health	trialStart	3	148	28	foodImage.95	FOODEEG_Images\0903.jpg	NY	Left	No	1.29517870000564	0	565787	251
1106.08984375	2	health	foodImageDisplay	3	148	28	foodImage.95	FOODEEG_Images\0903.jpg	NY	Left	No	1.29517870000564	0	566319	252
1108.1640625	1.29517870000564	health	choicePhaseStart	3	148	28	foodImage.95	FOODEEG_Images\0903.jpg	NY	Left	No	1.29517870000564	0	567381	253
1109.451171875	0	health	response	3	148	28	foodImage.95	FOODEEG_Images\0903.jpg	NY	Left	No	1.29517870000564	0	568040	234
1110.494140625	1	taste	trialStart	3	149	29	foodImage.10	FOODEEG_Images\0145.jpg	NY	Right	Yes	1.30660680000437	0	568574	251
1111.552734375	2	taste	foodImageDisplay	3	149	29	foodImage.10	FOODEEG_Images\0145.jpg	NY	Right	Yes	1.30660680000437	0	569116	252
1113.6171875	1.30660680000437	taste	choicePhaseStart	3	149	29	foodImage.10	FOODEEG_Images\0145.jpg	NY	Right	Yes	1.30660680000437	0	570173	253
1114.916015625	0	taste	response	3	149	29	foodImage.10	FOODEEG_Images\0145.jpg	NY	Right	Yes	1.30660680000437	0	570838	235
1115.95703125	1	taste	trialStart	3	150	30	foodImage.109	FOODEEG_Images\0917.jpg	YN	Left	Yes	1.02534570000716	0	571371	251
1117.00390625	2	taste	foodImageDisplay	3	150	30	foodImage.109	FOODEEG_Images\0917.jpg	YN	Left	Yes	1.02534570000716	0	571907	252
1119.068359375	1.02534570000716	taste	choicePhaseStart	3	150	30	foodImage.109	FOODEEG_Images\0917.jpg	YN	Left	Yes	1.02534570000716	0	572964	253
1120.083984375	0	taste	response	3	150	30	foodImage.109	FOODEEG_Images\0917.jpg	YN	Left	Yes	1.02534570000716	0	573484	234
1121.126953125	1	health	trialStart	3	151	31	foodImage.3	FOODEEG_Images\0046.jpg	YN	Right	No	1.13726509999833	0	574018	251
1122.16796875	2	health	foodImageDisplay	3	151	31	foodImage.3	FOODEEG_Images\0046.jpg	YN	Right	No	1.13726509999833	0	574551	252
1124.23828125	1.13726509999833	health	choicePhaseStart	3	151	31	foodImage.3	FOODEEG_Images\0046.jpg	YN	Right	No	1.13726509999833	0	575611	253
1125.37109375	0	health	response	3	151	31	foodImage.3	FOODEEG_Images\0046.jpg	YN	Right	No	1.13726509999833	0	576191	235
1126.41796875	1	taste	trialStart	3	152	32	foodImage.61	FOODEEG_Images\0640.jpg	YN	Left	Yes	0.919099200007622	0	576727	251
1127.4609375	2	taste	foodImageDisplay	3	152	32	foodImage.61	FOODEEG_Images\0640.jpg	YN	Left	Yes	0.919099200007622	0	577261	252
1129.5234375	0.919099200007622	taste	choicePhaseStart	3	152	32	foodImage.61	FOODEEG_Images\0640.jpg	YN	Left	Yes	0.919099200007622	0	578317	253
1130.43359375	0	taste	response	3	152	32	foodImage.61	FOODEEG_Images\0640.jpg	YN	Left	Yes	0.919099200007622	0	578783	234
1131.486328125	1	taste	trialStart	3	153	33	foodImage.11	FOODEEG_Images\0180.jpg	YN	Left	Yes	0.675913700004457	0	579322	251
1132.529296875	2	taste	foodImageDisplay	3	153	33	foodImage.11	FOODEEG_Images\0180.jpg	YN	Left	Yes	0.675913700004457	0	579856	252
1134.591796875	0.675913700004457	taste	choicePhaseStart	3	153	33	foodImage.11	FOODEEG_Images\0180.jpg	YN	Left	Yes	0.675913700004457	0	580912	253
1135.2578125	0	taste	response	3	153	33	foodImage.11	FOODEEG_Images\0180.jpg	YN	Left	Yes	0.675913700004457	0	581253	234
1136.30078125	1	taste	trialStart	3	154	34	foodImage.116	FOODEEG_Images\0924.jpg	NY	Left	No	0.805660100013483	0	581787	251
1137.33984375	2	taste	foodImageDisplay	3	154	34	foodImage.116	FOODEEG_Images\0924.jpg	NY	Left	No	0.805660100013483	0	582319	252
1139.40234375	0.805660100013483	taste	choicePhaseStart	3	154	34	foodImage.116	FOODEEG_Images\0924.jpg	NY	Left	No	0.805660100013483	0	583375	253
1140.201171875	0	taste	response	3	154	34	foodImage.116	FOODEEG_Images\0924.jpg	NY	Left	No	0.805660100013483	0	583784	234
1141.24609375	1	taste	trialStart	3	155	35	foodImage.101	FOODEEG_Images\0909.jpg	YN	Right	No	0.805736199996318	0	584319	251
1142.302734375	2	taste	foodImageDisplay	3	155	35	foodImage.101	FOODEEG_Images\0909.jpg	YN	Right	No	0.805736199996318	0	584860	252
1144.365234375	0.805736199996318	taste	choicePhaseStart	3	155	35	foodImage.101	FOODEEG_Images\0909.jpg	YN	Right	No	0.805736199996318	0	585916	253
1145.162109375	0	taste	response	3	155	35	foodImage.101	FOODEEG_Images\0909.jpg	YN	Right	No	0.805736199996318	0	586324	235
1146.205078125	1	taste	trialStart	3	156	36	foodImage.65	FOODEEG_Images\0658.jpg	NY	Right	Yes	0.703935600002296	0	586858	251
1147.259765625	2	taste	foodImageDisplay	3	156	36	foodImage.65	FOODEEG_Images\0658.jpg	NY	Right	Yes	0.703935600002296	0	587398	252
1149.32421875	0.703935600002296	taste	choicePhaseStart	3	156	36	foodImage.65	FOODEEG_Images\0658.jpg	NY	Right	Yes	0.703935600002296	0	588455	253
1150.017578125	0	taste	response	3	156	36	foodImage.65	FOODEEG_Images\0658.jpg	NY	Right	Yes	0.703935600002296	0	588810	235
1151.0625	1	taste	trialStart	3	157	37	foodImage.29	FOODEEG_Images\0278.jpg	YN	Right	No	1.30813649999618	0	589345	251
1152.103515625	2	taste	foodImageDisplay	3	157	37	foodImage.29	FOODEEG_Images\0278.jpg	YN	Right	No	1.30813649999618	0	589878	252
1154.16796875	1.30813649999618	taste	choicePhaseStart	3	157	37	foodImage.29	FOODEEG_Images\0278.jpg	YN	Right	No	1.30813649999618	0	590935	253
1155.46484375	0	taste	response	3	157	37	foodImage.29	FOODEEG_Images\0278.jpg	YN	Right	No	1.30813649999618	0	591599	235
1156.509765625	1	decision	trialStart	3	158	38	foodImage.101	FOODEEG_Images\0909.jpg	NY	Left	No	1.04748619999737	0	592134	251
1157.546875	2	decision	foodImageDisplay	3	158	38	foodImage.101	FOODEEG_Images\0909.jpg	NY	Left	No	1.04748619999737	0	592665	252
1159.611328125	1.04748619999737	decision	choicePhaseStart	3	158	38	foodImage.101	FOODEEG_Images\0909.jpg	NY	Left	No	1.04748619999737	0	593722	253
1160.6484375	0	decision	response	3	158	38	foodImage.101	FOODEEG_Images\0909.jpg	NY	Left	No	1.04748619999737	0	594253	234
1161.705078125	1	taste	trialStart	3	159	39	foodImage.83	FOODEEG_Images\0827.jpg	NY	Right	Yes	1.19468390000111	0	594794	251
1162.76171875	2	taste	foodImageDisplay	3	159	39	foodImage.83	FOODEEG_Images\0827.jpg	NY	Right	Yes	1.19468390000111	0	595335	252
1164.82421875	1.19468390000111	taste	choicePhaseStart	3	159	39	foodImage.83	FOODEEG_Images\0827.jpg	NY	Right	Yes	1.19468390000111	0	596391	253
1166.009765625	0	taste	response	3	159	39	foodImage.83	FOODEEG_Images\0827.jpg	NY	Right	Yes	1.19468390000111	0	596998	235
1167.052734375	1	health	trialStart	3	160	40	foodImage.49	FOODEEG_Images\0515.jpg	NY	Right	Yes	1.33361739999964	0	597532	251
1168.09375	2	health	foodImageDisplay	3	160	40	foodImage.49	FOODEEG_Images\0515.jpg	NY	Right	Yes	1.33361739999964	0	598065	252
1170.162109375	1.33361739999964	health	choicePhaseStart	3	160	40	foodImage.49	FOODEEG_Images\0515.jpg	NY	Right	Yes	1.33361739999964	0	599124	253
1171.48828125	0	health	response	3	160	40	foodImage.49	FOODEEG_Images\0515.jpg	NY	Right	Yes	1.33361739999964	0	599803	235
1172.53125	1	decision	trialStart	3	161	41	foodImage.5	FOODEEG_Images\0107.jpg	YN	Left	Yes	1.46736019999662	0	600337	251
1173.595703125	2	decision	foodImageDisplay	3	161	41	foodImage.5	FOODEEG_Images\0107.jpg	YN	Left	Yes	1.46736019999662	0	600882	252
1175.66015625	1.46736019999662	decision	choicePhaseStart	3	161	41	foodImage.5	FOODEEG_Images\0107.jpg	YN	Left	Yes	1.46736019999662	0	601939	253
1177.12109375	0	decision	response	3	161	41	foodImage.5	FOODEEG_Images\0107.jpg	YN	Left	Yes	1.46736019999662	0	602687	234
1178.1640625	1	decision	trialStart	3	162	42	foodImage.78	FOODEEG_Images\0787.jpg	YN	Left	Yes	1.70578629999363	0	603221	251
1179.20703125	2	decision	foodImageDisplay	3	162	42	foodImage.78	FOODEEG_Images\0787.jpg	YN	Left	Yes	1.70578629999363	0	603755	252
1181.271484375	1.70578629999363	decision	choicePhaseStart	3	162	42	foodImage.78	FOODEEG_Images\0787.jpg	YN	Left	Yes	1.70578629999363	0	604812	253
1182.96875	0	decision	response	3	162	42	foodImage.78	FOODEEG_Images\0787.jpg	YN	Left	Yes	1.70578629999363	0	605681	234
1184.01171875	1	health	trialStart	3	163	43	foodImage.110	FOODEEG_Images\0918.jpg	YN	Right	No	1.0432901000022	0	606215	251
1185.05078125	2	health	foodImageDisplay	3	163	43	foodImage.110	FOODEEG_Images\0918.jpg	YN	Right	No	1.0432901000022	0	606747	252
1187.119140625	1.0432901000022	health	choicePhaseStart	3	163	43	foodImage.110	FOODEEG_Images\0918.jpg	YN	Right	No	1.0432901000022	0	607806	253
1188.15234375	0	health	response	3	163	43	foodImage.110	FOODEEG_Images\0918.jpg	YN	Right	No	1.0432901000022	0	608335	235
1189.1953125	1	decision	trialStart	3	164	44	foodImage.26	FOODEEG_Images\0262.jpg	YN	Left	Yes	0.820777000000817	0	608869	251
1190.23828125	2	decision	foodImageDisplay	3	164	44	foodImage.26	FOODEEG_Images\0262.jpg	YN	Left	Yes	0.820777000000817	0	609403	252
1192.30078125	0.820777000000817	decision	choicePhaseStart	3	164	44	foodImage.26	FOODEEG_Images\0262.jpg	YN	Left	Yes	0.820777000000817	0	610459	253
1193.111328125	0	decision	response	3	164	44	foodImage.26	FOODEEG_Images\0262.jpg	YN	Left	Yes	0.820777000000817	0	610874	234
1194.15625	1	taste	trialStart	3	165	45	foodImage.54	FOODEEG_Images\0560.jpg	YN	Left	Yes	0.940498700001626	0	611409	251
1195.21484375	2	taste	foodImageDisplay	3	165	45	foodImage.54	FOODEEG_Images\0560.jpg	YN	Left	Yes	0.940498700001626	0	611951	252
1197.27734375	0.940498700001626	taste	choicePhaseStart	3	165	45	foodImage.54	FOODEEG_Images\0560.jpg	YN	Left	Yes	0.940498700001626	0	613007	253
1198.20703125	0	taste	response	3	165	45	foodImage.54	FOODEEG_Images\0560.jpg	YN	Left	Yes	0.940498700001626	0	613483	234
1199.25	1	health	trialStart	3	166	46	foodImage.105	FOODEEG_Images\0913.jpg	NY	Right	Yes	1.25696169999719	0	614017	251
1200.2890625	2	health	foodImageDisplay	3	166	46	foodImage.105	FOODEEG_Images\0913.jpg	NY	Right	Yes	1.25696169999719	0	614549	252
1202.3515625	1.25696169999719	health	choicePhaseStart	3	166	46	foodImage.105	FOODEEG_Images\0913.jpg	NY	Right	Yes	1.25696169999719	0	615605	253
1203.599609375	0	health	response	3	166	46	foodImage.105	FOODEEG_Images\0913.jpg	NY	Right	Yes	1.25696169999719	0	616244	235
1204.642578125	1	taste	trialStart	3	167	47	foodImage.120	FOODEEG_Images\0928.jpg	YN	Right	No	0.727935199989588	0	616778	251
1205.681640625	2	taste	foodImageDisplay	3	167	47	foodImage.120	FOODEEG_Images\0928.jpg	YN	Right	No	0.727935199989588	0	617310	252
1207.744140625	0.727935199989588	taste	choicePhaseStart	3	167	47	foodImage.120	FOODEEG_Images\0928.jpg	YN	Right	No	0.727935199989588	0	618366	253
1208.462890625	0	taste	response	3	167	47	foodImage.120	FOODEEG_Images\0928.jpg	YN	Right	No	0.727935199989588	0	618734	235
1209.505859375	1	decision	trialStart	3	168	48	foodImage.111	FOODEEG_Images\0919.jpg	YN	Right	No	0.704123699993943	0	619268	251
1210.544921875	2	decision	foodImageDisplay	3	168	48	foodImage.111	FOODEEG_Images\0919.jpg	YN	Right	No	0.704123699993943	0	619800	252
1212.609375	0.704123699993943	decision	choicePhaseStart	3	168	48	foodImage.111	FOODEEG_Images\0919.jpg	YN	Right	No	0.704123699993943	0	620857	253
1213.302734375	0	decision	response	3	168	48	foodImage.111	FOODEEG_Images\0919.jpg	YN	Right	No	0.704123699993943	0	621212	235
1214.345703125	1	health	trialStart	3	169	49	foodImage.63	FOODEEG_Images\0645.jpg	YN	Right	No	0.98803510000289	0	621746	251
1215.388671875	2	health	foodImageDisplay	3	169	49	foodImage.63	FOODEEG_Images\0645.jpg	YN	Right	No	0.98803510000289	0	622280	252
1217.451171875	0.98803510000289	health	choicePhaseStart	3	169	49	foodImage.63	FOODEEG_Images\0645.jpg	YN	Right	No	0.98803510000289	0	623336	253
1218.431640625	0	health	response	3	169	49	foodImage.63	FOODEEG_Images\0645.jpg	YN	Right	No	0.98803510000289	0	623838	235
1219.4765625	1	decision	trialStart	3	170	50	foodImage.23	FOODEEG_Images\0244.jpg	NY	Right	Yes	1.00737880000088	0	624373	251
1220.521484375	2	decision	foodImageDisplay	3	170	50	foodImage.23	FOODEEG_Images\0244.jpg	NY	Right	Yes	1.00737880000088	0	624908	252
1222.5859375	1.00737880000088	decision	choicePhaseStart	3	170	50	foodImage.23	FOODEEG_Images\0244.jpg	NY	Right	Yes	1.00737880000088	0	625965	253
1223.583984375	0	decision	response	3	170	50	foodImage.23	FOODEEG_Images\0244.jpg	NY	Right	Yes	1.00737880000088	0	626476	235
1224.626953125	1	decision	trialStart	3	171	51	foodImage.52	FOODEEG_Images\0539.jpg	YN	Left	Yes	0.689646600003471	0	627010	251
1225.6875	2	decision	foodImageDisplay	3	171	51	foodImage.52	FOODEEG_Images\0539.jpg	YN	Left	Yes	0.689646600003471	0	627553	252
1227.75	0.689646600003471	decision	choicePhaseStart	3	171	51	foodImage.52	FOODEEG_Images\0539.jpg	YN	Left	Yes	0.689646600003471	0	628609	253
1228.4296875	0	decision	response	3	171	51	foodImage.52	FOODEEG_Images\0539.jpg	YN	Left	Yes	0.689646600003471	0	628957	234
1229.474609375	1	taste	trialStart	3	172	52	foodImage.104	FOODEEG_Images\0912.jpg	NY	Right	Yes	0.707562600000529	0	629492	251
1230.517578125	2	taste	foodImageDisplay	3	172	52	foodImage.104	FOODEEG_Images\0912.jpg	NY	Right	Yes	0.707562600000529	0	630026	252
1232.580078125	0.707562600000529	taste	choicePhaseStart	3	172	52	foodImage.104	FOODEEG_Images\0912.jpg	NY	Right	Yes	0.707562600000529	0	631082	253
1233.279296875	0	taste	response	3	172	52	foodImage.104	FOODEEG_Images\0912.jpg	NY	Right	Yes	0.707562600000529	0	631440	235
1234.322265625	1	taste	trialStart	3	173	53	foodImage.31	FOODEEG_Images\0294.jpg	NY	Right	Yes	0.940149200003361	0	631974	251
1235.36328125	2	taste	foodImageDisplay	3	173	53	foodImage.31	FOODEEG_Images\0294.jpg	NY	Right	Yes	0.940149200003361	0	632507	252
1237.427734375	0.940149200003361	taste	choicePhaseStart	3	173	53	foodImage.31	FOODEEG_Images\0294.jpg	NY	Right	Yes	0.940149200003361	0	633564	253
1238.357421875	0	taste	response	3	173	53	foodImage.31	FOODEEG_Images\0294.jpg	NY	Right	Yes	0.940149200003361	0	634040	235
1239.404296875	1	health	trialStart	3	174	54	foodImage.14	FOODEEG_Images\0188.jpg	YN	Right	No	1.11753960000351	0	634576	251
1240.48828125	2	health	foodImageDisplay	3	174	54	foodImage.14	FOODEEG_Images\0188.jpg	YN	Right	No	1.11753960000351	0	635131	252
1242.55078125	1.11753960000351	health	choicePhaseStart	3	174	54	foodImage.14	FOODEEG_Images\0188.jpg	YN	Right	No	1.11753960000351	0	636187	253
1243.662109375	0	health	response	3	174	54	foodImage.14	FOODEEG_Images\0188.jpg	YN	Right	No	1.11753960000351	0	636756	235
1244.703125	1	decision	trialStart	3	175	55	foodImage.102	FOODEEG_Images\0910.jpg	NY	Left	No	0.959468400003971	0	637289	251
1245.7421875	2	decision	foodImageDisplay	3	175	55	foodImage.102	FOODEEG_Images\0910.jpg	NY	Left	No	0.959468400003971	0	637821	252
1247.806640625	0.959468400003971	decision	choicePhaseStart	3	175	55	foodImage.102	FOODEEG_Images\0910.jpg	NY	Left	No	0.959468400003971	0	638878	253
1248.7578125	0	decision	response	3	175	55	foodImage.102	FOODEEG_Images\0910.jpg	NY	Left	No	0.959468400003971	0	639365	234
1249.798828125	1	health	trialStart	3	176	56	foodImage.24	FOODEEG_Images\0250.jpg	YN	Left	Yes	1.1256529000093	0	639898	251
1250.841796875	2	health	foodImageDisplay	3	176	56	foodImage.24	FOODEEG_Images\0250.jpg	YN	Left	Yes	1.1256529000093	0	640432	252
1252.904296875	1.1256529000093	health	choicePhaseStart	3	176	56	foodImage.24	FOODEEG_Images\0250.jpg	YN	Left	Yes	1.1256529000093	0	641488	253
1254.021484375	0	health	response	3	176	56	foodImage.24	FOODEEG_Images\0250.jpg	YN	Left	Yes	1.1256529000093	0	642060	234
1255.076171875	1	decision	trialStart	3	177	57	foodImage.120	FOODEEG_Images\0928.jpg	NY	Left	No	1.06143899999734	0	642600	251
1256.11328125	2	decision	foodImageDisplay	3	177	57	foodImage.120	FOODEEG_Images\0928.jpg	NY	Left	No	1.06143899999734	0	643131	252
1258.177734375	1.06143899999734	decision	choicePhaseStart	3	177	57	foodImage.120	FOODEEG_Images\0928.jpg	NY	Left	No	1.06143899999734	0	644188	253
1259.228515625	0	decision	response	3	177	57	foodImage.120	FOODEEG_Images\0928.jpg	NY	Left	No	1.06143899999734	0	644726	234
1260.271484375	1	health	trialStart	3	178	58	foodImage.77	FOODEEG_Images\0771.jpg	YN	Left	Yes	0.902334300000803	0	645260	251
1261.314453125	2	health	foodImageDisplay	3	178	58	foodImage.77	FOODEEG_Images\0771.jpg	YN	Left	Yes	0.902334300000803	0	645794	252
1263.376953125	0.902334300000803	health	choicePhaseStart	3	178	58	foodImage.77	FOODEEG_Images\0771.jpg	YN	Left	Yes	0.902334300000803	0	646850	253
1264.26953125	0	health	response	3	178	58	foodImage.77	FOODEEG_Images\0771.jpg	YN	Left	Yes	0.902334300000803	0	647307	234
1265.3125	1	health	trialStart	3	179	59	foodImage.120	FOODEEG_Images\0928.jpg	YN	Right	No	1.51719260000391	0	647841	251
1266.3515625	2	health	foodImageDisplay	3	179	59	foodImage.120	FOODEEG_Images\0928.jpg	YN	Right	No	1.51719260000391	0	648373	252
1268.42578125	1.51719260000391	health	choicePhaseStart	3	179	59	foodImage.120	FOODEEG_Images\0928.jpg	YN	Right	No	1.51719260000391	0	649435	253
1269.93359375	0	health	response	3	179	59	foodImage.120	FOODEEG_Images\0928.jpg	YN	Right	No	1.51719260000391	0	650207	235
1270.9765625	1	decision	trialStart	3	180	60	foodImage.32	FOODEEG_Images\0319.jpg	NY	Right	Yes	0.896256599997287	0	650741	251
1272.021484375	2	decision	foodImageDisplay	3	180	60	foodImage.32	FOODEEG_Images\0319.jpg	NY	Right	Yes	0.896256599997287	0	651276	252
1274.0859375	0.896256599997287	decision	choicePhaseStart	3	180	60	foodImage.32	FOODEEG_Images\0319.jpg	NY	Right	Yes	0.896256599997287	0	652333	253
1274.97265625	0	decision	response	3	180	60	foodImage.32	FOODEEG_Images\0319.jpg	NY	Right	Yes	0.896256599997287	0	652787	235
1277.029296875	14.1875	n/a	blockEnd	n/a	n/a	n/a	n/a	n/a	n/a	n/a	n/a	n/a	n/a	653840	254
1291.216796875	2	n/a	blockStart	4	n/a	n/a	n/a	n/a	n/a	n/a	n/a	n/a	n/a	661104	250
1293.25	1	health	trialStart	4	181	1	foodImage.117	FOODEEG_Images\0925.jpg	NY	Left	No	1.12583789999189	0	662145	251
1294.2890625	2	health	foodImageDisplay	4	181	1	foodImage.117	FOODEEG_Images\0925.jpg	NY	Left	No	1.12583789999189	0	662677	252
1296.357421875	1.12583789999189	health	choicePhaseStart	4	181	1	foodImage.117	FOODEEG_Images\0925.jpg	NY	Left	No	1.12583789999189	0	663736	253
1297.4765625	0	health	response	4	181	1	foodImage.117	FOODEEG_Images\0925.jpg	NY	Left	No	1.12583789999189	0	664309	234
1298.5234375	1	health	trialStart	4	182	2	foodImage.20	FOODEEG_Images\0226.jpg	NY	Right	Yes	0.569821199998842	0	664845	251
1299.56640625	2	health	foodImageDisplay	4	182	2	foodImage.20	FOODEEG_Images\0226.jpg	NY	Right	Yes	0.569821199998842	0	665379	252
1301.634765625	0.569821199998842	health	choicePhaseStart	4	182	2	foodImage.20	FOODEEG_Images\0226.jpg	NY	Right	Yes	0.569821199998842	0	666438	253
1302.1953125	0	health	response	4	182	2	foodImage.20	FOODEEG_Images\0226.jpg	NY	Right	Yes	0.569821199998842	0	666725	235
1303.23828125	1	decision	trialStart	4	183	3	foodImage.106	FOODEEG_Images\0914.jpg	YN	Right	No	0.882572000002256	0	667259	251
1304.291015625	2	decision	foodImageDisplay	4	183	3	foodImage.106	FOODEEG_Images\0914.jpg	YN	Right	No	0.882572000002256	0	667798	252
1306.353515625	0.882572000002256	decision	choicePhaseStart	4	183	3	foodImage.106	FOODEEG_Images\0914.jpg	YN	Right	No	0.882572000002256	0	668854	253
1307.2265625	0	decision	response	4	183	3	foodImage.106	FOODEEG_Images\0914.jpg	YN	Right	No	0.882572000002256	0	669301	235
1308.271484375	1	decision	trialStart	4	184	4	foodImage.79	FOODEEG_Images\0794.jpg	YN	Right	No	0.619985700002871	0	669836	251
1309.314453125	2	decision	foodImageDisplay	4	184	4	foodImage.79	FOODEEG_Images\0794.jpg	YN	Right	No	0.619985700002871	0	670370	252
1311.376953125	0.619985700002871	decision	choicePhaseStart	4	184	4	foodImage.79	FOODEEG_Images\0794.jpg	YN	Right	No	0.619985700002871	0	671426	253
1311.986328125	0	decision	response	4	184	4	foodImage.79	FOODEEG_Images\0794.jpg	YN	Right	No	0.619985700002871	0	671738	235
1313.03125	1	health	trialStart	4	185	5	foodImage.37	FOODEEG_Images\0359.jpg	YN	Left	Yes	0.979528899988509	0	672273	251
1314.072265625	2	health	foodImageDisplay	4	185	5	foodImage.37	FOODEEG_Images\0359.jpg	YN	Left	Yes	0.979528899988509	0	672806	252
1316.13671875	0.979528899988509	health	choicePhaseStart	4	185	5	foodImage.37	FOODEEG_Images\0359.jpg	YN	Left	Yes	0.979528899988509	0	673863	253
1317.107421875	0	health	response	4	185	5	foodImage.37	FOODEEG_Images\0359.jpg	YN	Left	Yes	0.979528899988509	0	674360	234
1318.158203125	1	taste	trialStart	4	186	6	foodImage.92	FOODEEG_Images\0900.jpg	NY	Left	No	0.696883000011439	0	674898	251
1319.1953125	2	taste	foodImageDisplay	4	186	6	foodImage.92	FOODEEG_Images\0900.jpg	NY	Left	No	0.696883000011439	0	675429	252
1321.259765625	0.696883000011439	taste	choicePhaseStart	4	186	6	foodImage.92	FOODEEG_Images\0900.jpg	NY	Left	No	0.696883000011439	0	676486	253
1321.947265625	0	taste	response	4	186	6	foodImage.92	FOODEEG_Images\0900.jpg	NY	Left	No	0.696883000011439	0	676838	234
1322.990234375	1	health	trialStart	4	187	7	foodImage.109	FOODEEG_Images\0917.jpg	NY	Left	No	0.889683400004287	0	677372	251
1324.02734375	2	health	foodImageDisplay	4	187	7	foodImage.109	FOODEEG_Images\0917.jpg	NY	Left	No	0.889683400004287	0	677903	252
1326.08984375	0.889683400004287	health	choicePhaseStart	4	187	7	foodImage.109	FOODEEG_Images\0917.jpg	NY	Left	No	0.889683400004287	0	678959	253
1326.970703125	0	health	response	4	187	7	foodImage.109	FOODEEG_Images\0917.jpg	NY	Left	No	0.889683400004287	0	679410	234
1328.013671875	1	taste	trialStart	4	188	8	foodImage.89	FOODEEG_Images\0881.jpg	NY	Right	Yes	0.621241300003021	0	679944	251
1329.0703125	2	taste	foodImageDisplay	4	188	8	foodImage.89	FOODEEG_Images\0881.jpg	NY	Right	Yes	0.621241300003021	0	680485	252
1331.134765625	0.621241300003021	taste	choicePhaseStart	4	188	8	foodImage.89	FOODEEG_Images\0881.jpg	NY	Right	Yes	0.621241300003021	0	681542	253
1331.74609375	0	taste	response	4	188	8	foodImage.89	FOODEEG_Images\0881.jpg	NY	Right	Yes	0.621241300003021	0	681855	235
1332.7890625	1	health	trialStart	4	189	9	foodImage.81	FOODEEG_Images\0797.jpg	YN	Left	Yes	1.59796739999729	0	682389	251
1333.873046875	2	health	foodImageDisplay	4	189	9	foodImage.81	FOODEEG_Images\0797.jpg	YN	Left	Yes	1.59796739999729	0	682944	252
1335.935546875	1.59796739999729	health	choicePhaseStart	4	189	9	foodImage.81	FOODEEG_Images\0797.jpg	YN	Left	Yes	1.59796739999729	0	684000	253
1337.5234375	0	health	response	4	189	9	foodImage.81	FOODEEG_Images\0797.jpg	YN	Left	Yes	1.59796739999729	0	684813	234
1338.572265625	1	decision	trialStart	4	190	10	foodImage.89	FOODEEG_Images\0881.jpg	NY	Right	Yes	0.737965699998313	0	685350	251
1339.626953125	2	decision	foodImageDisplay	4	190	10	foodImage.89	FOODEEG_Images\0881.jpg	NY	Right	Yes	0.737965699998313	0	685890	252
1341.6953125	0.737965699998313	decision	choicePhaseStart	4	190	10	foodImage.89	FOODEEG_Images\0881.jpg	NY	Right	Yes	0.737965699998313	0	686949	253
1342.42578125	0	decision	response	4	190	10	foodImage.89	FOODEEG_Images\0881.jpg	NY	Right	Yes	0.737965699998313	0	687323	235
1343.46875	1	decision	trialStart	4	191	11	foodImage.116	FOODEEG_Images\0924.jpg	NY	Left	No	0.982377299995278	0	687857	251
1344.5078125	2	decision	foodImageDisplay	4	191	11	foodImage.116	FOODEEG_Images\0924.jpg	NY	Left	No	0.982377299995278	0	688389	252
1346.5703125	0.982377299995278	decision	choicePhaseStart	4	191	11	foodImage.116	FOODEEG_Images\0924.jpg	NY	Left	No	0.982377299995278	0	689445	253
1347.544921875	0	decision	response	4	191	11	foodImage.116	FOODEEG_Images\0924.jpg	NY	Left	No	0.982377299995278	0	689944	234
1348.58984375	1	health	trialStart	4	192	12	foodImage.52	FOODEEG_Images\0539.jpg	NY	Right	Yes	0.874964000002365	0	690479	251
1349.666015625	2	health	foodImageDisplay	4	192	12	foodImage.52	FOODEEG_Images\0539.jpg	NY	Right	Yes	0.874964000002365	0	691030	252
1351.734375	0.874964000002365	health	choicePhaseStart	4	192	12	foodImage.52	FOODEEG_Images\0539.jpg	NY	Right	Yes	0.874964000002365	0	692089	253
1352.6015625	0	health	response	4	192	12	foodImage.52	FOODEEG_Images\0539.jpg	NY	Right	Yes	0.874964000002365	0	692533	235
1353.650390625	1	decision	trialStart	4	193	13	foodImage.17	FOODEEG_Images\0199.jpg	NY	Right	Yes	0.805647699991823	0	693070	251
1354.6953125	2	decision	foodImageDisplay	4	193	13	foodImage.17	FOODEEG_Images\0199.jpg	NY	Right	Yes	0.805647699991823	0	693605	252
1356.763671875	0.805647699991823	decision	choicePhaseStart	4	193	13	foodImage.17	FOODEEG_Images\0199.jpg	NY	Right	Yes	0.805647699991823	0	694664	253
1357.5625	0	decision	response	4	193	13	foodImage.17	FOODEEG_Images\0199.jpg	NY	Right	Yes	0.805647699991823	0	695073	235
1358.6171875	1	decision	trialStart	4	194	14	foodImage.93	FOODEEG_Images\0901.jpg	NY	Left	No	1.21986680000555	0	695613	251
1359.654296875	2	decision	foodImageDisplay	4	194	14	foodImage.93	FOODEEG_Images\0901.jpg	NY	Left	No	1.21986680000555	0	696144	252
1361.71875	1.21986680000555	decision	choicePhaseStart	4	194	14	foodImage.93	FOODEEG_Images\0901.jpg	NY	Left	No	1.21986680000555	0	697201	253
1362.9296875	0	decision	response	4	194	14	foodImage.93	FOODEEG_Images\0901.jpg	NY	Left	No	1.21986680000555	0	697821	234
