onset	duration	trial_type	event_type	block	trial_total	trial_in_block	food_image_code	food_image_path	button_position	resp_position	resp_choice	choice_rt	resp_too_slow	sample	trigger
298.48046875	2	n/a	blockStart	1	n/a	n/a	n/a	n/a	n/a	n/a	n/a	n/a	n/a	152823	250
300.51953125	1	decision	trialStart	1	1	1	foodImage.15	FOODEEG_Images\0189.jpg	NY	Right	Yes	0.78055879999738	0	153867	251
301.587890625	2	decision	foodImageDisplay	1	1	1	foodImage.15	FOODEEG_Images\0189.jpg	NY	Right	Yes	0.78055879999738	0	154414	252
303.65234375	0.78055879999738	decision	choicePhaseStart	1	1	1	foodImage.15	FOODEEG_Images\0189.jpg	NY	Right	Yes	0.78055879999738	0	155471	253
304.423828125	0	decision	response	1	1	1	foodImage.15	FOODEEG_Images\0189.jpg	NY	Right	Yes	0.78055879999738	0	155866	235
305.509765625	1	decision	trialStart	1	2	2	foodImage.74	FOODEEG_Images\0752.jpg	NY	Right	Yes	0.732945100004144	0	156422	251
306.5546875	2	decision	foodImageDisplay	1	2	2	foodImage.74	FOODEEG_Images\0752.jpg	NY	Right	Yes	0.732945100004144	0	156957	252
308.619140625	0.732945100004144	decision	choicePhaseStart	1	2	2	foodImage.74	FOODEEG_Images\0752.jpg	NY	Right	Yes	0.732945100004144	0	158014	253
309.34375	0	decision	response	1	2	2	foodImage.74	FOODEEG_Images\0752.jpg	NY	Right	Yes	0.732945100004144	0	158385	235
310.3984375	1	taste	trialStart	1	3	3	foodImage.52	FOODEEG_Images\0539.jpg	NY	Right	Yes	1.31428670000605	0	158925	251
311.455078125	2	taste	foodImageDisplay	1	3	3	foodImage.52	FOODEEG_Images\0539.jpg	NY	Right	Yes	1.31428670000605	0	159466	252
313.51953125	1.31428670000605	taste	choicePhaseStart	1	3	3	foodImage.52	FOODEEG_Images\0539.jpg	NY	Right	Yes	1.31428670000605	0	160523	253
314.82421875	0	taste	response	1	3	3	foodImage.52	FOODEEG_Images\0539.jpg	NY	Right	Yes	1.31428670000605	0	161191	235
315.8671875	1	health	trialStart	1	4	4	foodImage.116	FOODEEG_Images\0924.jpg	YN	Right	No	1.34868840000127	0	161725	251
316.908203125	2	health	foodImageDisplay	1	4	4	foodImage.116	FOODEEG_Images\0924.jpg	YN	Right	No	1.34868840000127	0	162258	252
318.970703125	1.34868840000127	health	choicePhaseStart	1	4	4	foodImage.116	FOODEEG_Images\0924.jpg	YN	Right	No	1.34868840000127	0	163314	253
320.310546875	0	health	response	1	4	4	foodImage.116	FOODEEG_Images\0924.jpg	YN	Right	No	1.34868840000127	0	164000	235
321.35546875	1	health	trialStart	1	5	5	foodImage.58	FOODEEG_Images\0605.jpg	YN	Left	Yes	1.13929090000602	0	164535	251
322.416015625	2	health	foodImageDisplay	1	5	5	foodImage.58	FOODEEG_Images\0605.jpg	YN	Left	Yes	1.13929090000602	0	165078	252
324.48046875	1.13929090000602	health	choicePhaseStart	1	5	5	foodImage.58	FOODEEG_Images\0605.jpg	YN	Left	Yes	1.13929090000602	0	166135	253
325.615234375	0	health	response	1	5	5	foodImage.58	FOODEEG_Images\0605.jpg	YN	Left	Yes	1.13929090000602	0	166716	234
326.6640625	1	decision	trialStart	1	6	6	foodImage.92	FOODEEG_Images\0900.jpg	YN	Right	No	0.655305200001749	0	167253	251
327.705078125	2	decision	foodImageDisplay	1	6	6	foodImage.92	FOODEEG_Images\0900.jpg	YN	Right	No	0.655305200001749	0	167786	252
329.76953125	0.655305200001749	decision	choicePhaseStart	1	6	6	foodImage.92	FOODEEG_Images\0900.jpg	YN	Right	No	0.655305200001749	0	168843	253
330.416015625	0	decision	response	1	6	6	foodImage.92	FOODEEG_Images\0900.jpg	YN	Right	No	0.655305200001749	0	169174	235
331.45703125	1	decision	trialStart	1	7	7	foodImage.37	FOODEEG_Images\0359.jpg	NY	Right	Yes	0.932842800000799	0	169707	251
332.5	2	decision	foodImageDisplay	1	7	7	foodImage.37	FOODEEG_Images\0359.jpg	NY	Right	Yes	0.932842800000799	0	170241	252
334.5625	0.932842800000799	decision	choicePhaseStart	1	7	7	foodImage.37	FOODEEG_Images\0359.jpg	NY	Right	Yes	0.932842800000799	0	171297	253
335.486328125	0	decision	response	1	7	7	foodImage.37	FOODEEG_Images\0359.jpg	NY	Right	Yes	0.932842800000799	0	171770	235
336.529296875	1	decision	trialStart	1	8	8	foodImage.70	FOODEEG_Images\0705.jpg	YN	Left	Yes	0.886880000005476	0	172304	251
337.587890625	2	decision	foodImageDisplay	1	8	8	foodImage.70	FOODEEG_Images\0705.jpg	YN	Left	Yes	0.886880000005476	0	172846	252
339.65625	0.886880000005476	decision	choicePhaseStart	1	8	8	foodImage.70	FOODEEG_Images\0705.jpg	YN	Left	Yes	0.886880000005476	0	173905	253
340.53515625	0	decision	response	1	8	8	foodImage.70	FOODEEG_Images\0705.jpg	YN	Left	Yes	0.886880000005476	0	174355	234
341.576171875	1	health	trialStart	1	9	9	foodImage.34	FOODEEG_Images\0339.jpg	YN	Right	No	0.793263699997624	0	174888	251
342.6328125	2	health	foodImageDisplay	1	9	9	foodImage.34	FOODEEG_Images\0339.jpg	YN	Right	No	0.793263699997624	0	175429	252
344.6953125	0.793263699997624	health	choicePhaseStart	1	9	9	foodImage.34	FOODEEG_Images\0339.jpg	YN	Right	No	0.793263699997624	0	176485	253
345.486328125	0	health	response	1	9	9	foodImage.34	FOODEEG_Images\0339.jpg	YN	Right	No	0.793263699997624	0	176890	235
346.52734375	1	health	trialStart	1	10	10	foodImage.42	FOODEEG_Images\0438.jpg	NY	Right	Yes	1.18222830000013	0	177423	251
347.615234375	2	health	foodImageDisplay	1	10	10	foodImage.42	FOODEEG_Images\0438.jpg	NY	Right	Yes	1.18222830000013	0	177980	252
349.677734375	1.18222830000013	health	choicePhaseStart	1	10	10	foodImage.42	FOODEEG_Images\0438.jpg	NY	Right	Yes	1.18222830000013	0	179036	253
350.853515625	0	health	response	1	10	10	foodImage.42	FOODEEG_Images\0438.jpg	NY	Right	Yes	1.18222830000013	0	179638	235
351.89453125	1	taste	trialStart	1	11	11	foodImage.71	FOODEEG_Images\0713.jpg	YN	Left	Yes	0.749043399999209	0	180171	251
352.9375	2	taste	foodImageDisplay	1	11	11	foodImage.71	FOODEEG_Images\0713.jpg	YN	Left	Yes	0.749043399999209	0	180705	252
355.001953125	0.749043399999209	taste	choicePhaseStart	1	11	11	foodImage.71	FOODEEG_Images\0713.jpg	YN	Left	Yes	0.749043399999209	0	181762	253
355.7421875	0	taste	response	1	11	11	foodImage.71	FOODEEG_Images\0713.jpg	YN	Left	Yes	0.749043399999209	0	182141	234
356.78515625	1	decision	trialStart	1	12	12	foodImage.75	FOODEEG_Images\0763.jpg	NY	Left	No	0.809874099999433	0	182675	251
357.830078125	2	decision	foodImageDisplay	1	12	12	foodImage.75	FOODEEG_Images\0763.jpg	NY	Left	No	0.809874099999433	0	183210	252
359.892578125	0.809874099999433	decision	choicePhaseStart	1	12	12	foodImage.75	FOODEEG_Images\0763.jpg	NY	Left	No	0.809874099999433	0	184266	253
360.693359375	0	decision	response	1	12	12	foodImage.75	FOODEEG_Images\0763.jpg	NY	Left	No	0.809874099999433	0	184676	234
361.734375	1	taste	trialStart	1	13	13	foodImage.14	FOODEEG_Images\0188.jpg	NY	Left	No	1.22771749999811	0	185209	251
362.794921875	2	taste	foodImageDisplay	1	13	13	foodImage.14	FOODEEG_Images\0188.jpg	NY	Left	No	1.22771749999811	0	185752	252
364.859375	1.22771749999811	taste	choicePhaseStart	1	13	13	foodImage.14	FOODEEG_Images\0188.jpg	NY	Left	No	1.22771749999811	0	186809	253
366.078125	0	taste	response	1	13	13	foodImage.14	FOODEEG_Images\0188.jpg	NY	Left	No	1.22771749999811	0	187433	234
367.123046875	1	health	trialStart	1	14	14	foodImage.87	FOODEEG_Images\0873.jpg	NY	Right	Yes	0.85140169999795	0	187968	251
368.1796875	2	health	foodImageDisplay	1	14	14	foodImage.87	FOODEEG_Images\0873.jpg	NY	Right	Yes	0.85140169999795	0	188509	252
370.2421875	0.85140169999795	health	choicePhaseStart	1	14	14	foodImage.87	FOODEEG_Images\0873.jpg	NY	Right	Yes	0.85140169999795	0	189565	253
371.0859375	0	health	response	1	14	14	foodImage.87	FOODEEG_Images\0873.jpg	NY	Right	Yes	0.85140169999795	0	189997	235
372.126953125	1	decision	trialStart	1	15	15	foodImage.30	FOODEEG_Images\0282.jpg	YN	Left	Yes	0.573927899997216	0	190530	251
373.16796875	2	decision	foodImageDisplay	1	15	15	foodImage.30	FOODEEG_Images\0282.jpg	YN	Left	Yes	0.573927899997216	0	191063	252
375.232421875	0.573927899997216	decision	choicePhaseStart	1	15	15	foodImage.30	FOODEEG_Images\0282.jpg	YN	Left	Yes	0.573927899997216	0	192120	253
375.796875	0	decision	response	1	15	15	foodImage.30	FOODEEG_Images\0282.jpg	YN	Left	Yes	0.573927899997216	0	192409	234
376.837890625	1	taste	trialStart	1	16	16	foodImage.68	FOODEEG_Images\0685.jpg	YN	Left	Yes	0.874573300003249	0	192942	251
377.912109375	2	taste	foodImageDisplay	1	16	16	foodImage.68	FOODEEG_Images\0685.jpg	YN	Left	Yes	0.874573300003249	0	193492	252
379.978515625	0.874573300003249	taste	choicePhaseStart	1	16	16	foodImage.68	FOODEEG_Images\0685.jpg	YN	Left	Yes	0.874573300003249	0	194550	253
380.845703125	0	taste	response	1	16	16	foodImage.68	FOODEEG_Images\0685.jpg	YN	Left	Yes	0.874573300003249	0	194994	234
381.884765625	1	decision	trialStart	1	17	17	foodImage.23	FOODEEG_Images\0244.jpg	YN	Left	Yes	1.48780329999863	0	195526	251
382.92578125	2	decision	foodImageDisplay	1	17	17	foodImage.23	FOODEEG_Images\0244.jpg	YN	Left	Yes	1.48780329999863	0	196059	252
384.99609375	1.48780329999863	decision	choicePhaseStart	1	17	17	foodImage.23	FOODEEG_Images\0244.jpg	YN	Left	Yes	1.48780329999863	0	197119	253
386.4765625	0	decision	response	1	17	17	foodImage.23	FOODEEG_Images\0244.jpg	YN	Left	Yes	1.48780329999863	0	197877	234
387.517578125	1	decision	trialStart	1	18	18	foodImage.64	FOODEEG_Images\0647.jpg	YN	Left	Yes	1.28028080000513	0	198410	251
388.57421875	2	decision	foodImageDisplay	1	18	18	foodImage.64	FOODEEG_Images\0647.jpg	YN	Left	Yes	1.28028080000513	0	198951	252
390.638671875	1.28028080000513	decision	choicePhaseStart	1	18	18	foodImage.64	FOODEEG_Images\0647.jpg	YN	Left	Yes	1.28028080000513	0	200008	253
391.908203125	0	decision	response	1	18	18	foodImage.64	FOODEEG_Images\0647.jpg	YN	Left	Yes	1.28028080000513	0	200658	234
392.94921875	1	health	trialStart	1	19	19	foodImage.32	FOODEEG_Images\0319.jpg	NY	Left	No	1.1571266999963	0	201191	251
393.9921875	2	health	foodImageDisplay	1	19	19	foodImage.32	FOODEEG_Images\0319.jpg	NY	Left	No	1.1571266999963	0	201725	252
396.056640625	1.1571266999963	health	choicePhaseStart	1	19	19	foodImage.32	FOODEEG_Images\0319.jpg	NY	Left	No	1.1571266999963	0	202782	253
397.205078125	0	health	response	1	19	19	foodImage.32	FOODEEG_Images\0319.jpg	NY	Left	No	1.1571266999963	0	203370	234
398.248046875	1	health	trialStart	1	20	20	foodImage.74	FOODEEG_Images\0752.jpg	YN	Left	Yes	1.15497839999443	0	203904	251
399.291015625	2	health	foodImageDisplay	1	20	20	foodImage.74	FOODEEG_Images\0752.jpg	YN	Left	Yes	1.15497839999443	0	204438	252
401.353515625	1.15497839999443	health	choicePhaseStart	1	20	20	foodImage.74	FOODEEG_Images\0752.jpg	YN	Left	Yes	1.15497839999443	0	205494	253
402.5	0	health	response	1	20	20	foodImage.74	FOODEEG_Images\0752.jpg	YN	Left	Yes	1.15497839999443	0	206081	234
403.54296875	1	taste	trialStart	1	21	21	foodImage.46	FOODEEG_Images\0479.jpg	NY	Right	Yes	0.753158699997584	0	206615	251
404.6015625	2	taste	foodImageDisplay	1	21	21	foodImage.46	FOODEEG_Images\0479.jpg	NY	Right	Yes	0.753158699997584	0	207157	252
406.666015625	0.753158699997584	taste	choicePhaseStart	1	21	21	foodImage.46	FOODEEG_Images\0479.jpg	NY	Right	Yes	0.753158699997584	0	208214	253
407.412109375	0	taste	response	1	21	21	foodImage.46	FOODEEG_Images\0479.jpg	NY	Right	Yes	0.753158699997584	0	208596	235
408.453125	1	health	trialStart	1	22	22	foodImage.81	FOODEEG_Images\0797.jpg	NY	Right	Yes	1.09746849999647	0	209129	251
409.5078125	2	health	foodImageDisplay	1	22	22	foodImage.81	FOODEEG_Images\0797.jpg	NY	Right	Yes	1.09746849999647	0	209669	252
411.572265625	1.09746849999647	health	choicePhaseStart	1	22	22	foodImage.81	FOODEEG_Images\0797.jpg	NY	Right	Yes	1.09746849999647	0	210726	253
412.66015625	0	health	response	1	22	22	foodImage.81	FOODEEG_Images\0797.jpg	NY	Right	Yes	1.09746849999647	0	211283	235
413.69921875	1	decision	trialStart	1	23	23	foodImage.60	FOODEEG_Images\0614.jpg	NY	Right	Yes	1.00509520000196	0	211815	251
414.759765625	2	decision	foodImageDisplay	1	23	23	foodImage.60	FOODEEG_Images\0614.jpg	NY	Right	Yes	1.00509520000196	0	212358	252
416.82421875	1.00509520000196	decision	choicePhaseStart	1	23	23	foodImage.60	FOODEEG_Images\0614.jpg	NY	Right	Yes	1.00509520000196	0	213415	253
417.818359375	0	decision	response	1	23	23	foodImage.60	FOODEEG_Images\0614.jpg	NY	Right	Yes	1.00509520000196	0	213924	235
418.861328125	1	health	trialStart	1	24	24	foodImage.70	FOODEEG_Images\0705.jpg	NY	Left	No	1.64227039999969	0	214458	251
419.919921875	2	health	foodImageDisplay	1	24	24	foodImage.70	FOODEEG_Images\0705.jpg	NY	Left	No	1.64227039999969	0	215000	252
421.982421875	1.64227039999969	health	choicePhaseStart	1	24	24	foodImage.70	FOODEEG_Images\0705.jpg	NY	Left	No	1.64227039999969	0	216056	253
423.619140625	0	health	response	1	24	24	foodImage.70	FOODEEG_Images\0705.jpg	NY	Left	No	1.64227039999969	0	216894	234
424.662109375	1	decision	trialStart	1	25	25	foodImage.34	FOODEEG_Images\0339.jpg	NY	Right	Yes	0.858473000000231	0	217428	251
425.71875	2	decision	foodImageDisplay	1	25	25	foodImage.34	FOODEEG_Images\0339.jpg	NY	Right	Yes	0.858473000000231	0	217969	252
427.783203125	0.858473000000231	decision	choicePhaseStart	1	25	25	foodImage.34	FOODEEG_Images\0339.jpg	NY	Right	Yes	0.858473000000231	0	219026	253
428.634765625	0	decision	response	1	25	25	foodImage.34	FOODEEG_Images\0339.jpg	NY	Right	Yes	0.858473000000231	0	219462	235
429.67578125	1	taste	trialStart	1	26	26	foodImage.11	FOODEEG_Images\0180.jpg	NY	Right	Yes	1.07882210000389	0	219995	251
430.716796875	2	taste	foodImageDisplay	1	26	26	foodImage.11	FOODEEG_Images\0180.jpg	NY	Right	Yes	1.07882210000389	0	220528	252
432.78125	1.07882210000389	taste	choicePhaseStart	1	26	26	foodImage.11	FOODEEG_Images\0180.jpg	NY	Right	Yes	1.07882210000389	0	221585	253
433.8515625	0	taste	response	1	26	26	foodImage.11	FOODEEG_Images\0180.jpg	NY	Right	Yes	1.07882210000389	0	222133	235
434.892578125	1	decision	trialStart	1	27	27	foodImage.91	FOODEEG_Images\0896.jpg	YN	Left	Yes	1.0143584000034	0	222666	251
435.94921875	2	decision	foodImageDisplay	1	27	27	foodImage.91	FOODEEG_Images\0896.jpg	YN	Left	Yes	1.0143584000034	0	223207	252
438.013671875	1.0143584000034	decision	choicePhaseStart	1	27	27	foodImage.91	FOODEEG_Images\0896.jpg	YN	Left	Yes	1.0143584000034	0	224264	253
439.01953125	0	decision	response	1	27	27	foodImage.91	FOODEEG_Images\0896.jpg	YN	Left	Yes	1.0143584000034	0	224779	234
440.05859375	1	health	trialStart	1	28	28	foodImage.13	FOODEEG_Images\0183.jpg	NY	Right	Yes	1.60630120000133	0	225311	251
441.099609375	2	health	foodImageDisplay	1	28	28	foodImage.13	FOODEEG_Images\0183.jpg	NY	Right	Yes	1.60630120000133	0	225844	252
443.166015625	1.60630120000133	health	choicePhaseStart	1	28	28	foodImage.13	FOODEEG_Images\0183.jpg	NY	Right	Yes	1.60630120000133	0	226902	253
444.76171875	0	health	response	1	28	28	foodImage.13	FOODEEG_Images\0183.jpg	NY	Right	Yes	1.60630120000133	0	227719	235
445.8046875	1	decision	trialStart	1	29	29	foodImage.105	FOODEEG_Images\0913.jpg	NY	Left	No	1.76933309999731	0	228253	251
446.841796875	2	decision	foodImageDisplay	1	29	29	foodImage.105	FOODEEG_Images\0913.jpg	NY	Left	No	1.76933309999731	0	228784	252
448.90625	1.76933309999731	decision	choicePhaseStart	1	29	29	foodImage.105	FOODEEG_Images\0913.jpg	NY	Left	No	1.76933309999731	0	229841	253
450.666015625	0	decision	response	1	29	29	foodImage.105	FOODEEG_Images\0913.jpg	NY	Left	No	1.76933309999731	0	230742	234
451.70703125	1	health	trialStart	1	30	30	foodImage.69	FOODEEG_Images\0693.jpg	NY	Right	Yes	1.31811179999931	0	231275	251
452.75	2	health	foodImageDisplay	1	30	30	foodImage.69	FOODEEG_Images\0693.jpg	NY	Right	Yes	1.31811179999931	0	231809	252
454.8125	1.31811179999931	health	choicePhaseStart	1	30	30	foodImage.69	FOODEEG_Images\0693.jpg	NY	Right	Yes	1.31811179999931	0	232865	253
456.12109375	0	health	response	1	30	30	foodImage.69	FOODEEG_Images\0693.jpg	NY	Right	Yes	1.31811179999931	0	233535	235
457.1640625	1	taste	trialStart	1	31	31	foodImage.47	FOODEEG_Images\0488.jpg	NY	Right	Yes	0.909970399996382	0	234069	251
458.205078125	2	taste	foodImageDisplay	1	31	31	foodImage.47	FOODEEG_Images\0488.jpg	NY	Right	Yes	0.909970399996382	0	234602	252
460.26953125	0.909970399996382	taste	choicePhaseStart	1	31	31	foodImage.47	FOODEEG_Images\0488.jpg	NY	Right	Yes	0.909970399996382	0	235659	253
461.169921875	0	taste	response	1	31	31	foodImage.47	FOODEEG_Images\0488.jpg	NY	Right	Yes	0.909970399996382	0	236120	235
462.21484375	1	taste	trialStart	1	32	32	foodImage.87	FOODEEG_Images\0873.jpg	YN	Right	No	1.39786330000061	0	236655	251
463.26953125	2	taste	foodImageDisplay	1	32	32	foodImage.87	FOODEEG_Images\0873.jpg	YN	Right	No	1.39786330000061	0	237195	252
465.333984375	1.39786330000061	taste	choicePhaseStart	1	32	32	foodImage.87	FOODEEG_Images\0873.jpg	YN	Right	No	1.39786330000061	0	238252	253
466.720703125	0	taste	response	1	32	32	foodImage.87	FOODEEG_Images\0873.jpg	YN	Right	No	1.39786330000061	0	238962	235
467.763671875	1	decision	trialStart	1	33	33	foodImage.95	FOODEEG_Images\0903.jpg	YN	Right	No	0.655467900003714	0	239496	251
468.802734375	2	decision	foodImageDisplay	1	33	33	foodImage.95	FOODEEG_Images\0903.jpg	YN	Right	No	0.655467900003714	0	240028	252
470.8671875	0.655467900003714	decision	choicePhaseStart	1	33	33	foodImage.95	FOODEEG_Images\0903.jpg	YN	Right	No	0.655467900003714	0	241085	253
471.513671875	0	decision	response	1	33	33	foodImage.95	FOODEEG_Images\0903.jpg	YN	Right	No	0.655467900003714	0	241416	235
472.55859375	1	taste	trialStart	1	34	34	foodImage.40	FOODEEG_Images\0373.jpg	NY	Right	Yes	1.23635459999787	0	241951	251
473.599609375	2	taste	foodImageDisplay	1	34	34	foodImage.40	FOODEEG_Images\0373.jpg	NY	Right	Yes	1.23635459999787	0	242484	252
475.662109375	1.23635459999787	taste	choicePhaseStart	1	34	34	foodImage.40	FOODEEG_Images\0373.jpg	NY	Right	Yes	1.23635459999787	0	243540	253
476.888671875	0	taste	response	1	34	34	foodImage.40	FOODEEG_Images\0373.jpg	NY	Right	Yes	1.23635459999787	0	244168	235
477.9296875	1	decision	trialStart	1	35	35	foodImage.107	FOODEEG_Images\0915.jpg	YN	Right	No	0.888064000006125	0	244701	251
478.96875	2	decision	foodImageDisplay	1	35	35	foodImage.107	FOODEEG_Images\0915.jpg	YN	Right	No	0.888064000006125	0	245233	252
481.033203125	0.888064000006125	decision	choicePhaseStart	1	35	35	foodImage.107	FOODEEG_Images\0915.jpg	YN	Right	No	0.888064000006125	0	246290	253
481.912109375	0	decision	response	1	35	35	foodImage.107	FOODEEG_Images\0915.jpg	YN	Right	No	0.888064000006125	0	246740	235
482.953125	1	taste	trialStart	1	36	36	foodImage.111	FOODEEG_Images\0919.jpg	NY	Left	No	0.883485199999996	0	247273	251
483.990234375	2	taste	foodImageDisplay	1	36	36	foodImage.111	FOODEEG_Images\0919.jpg	NY	Left	No	0.883485199999996	0	247804	252
486.0546875	0.883485199999996	taste	choicePhaseStart	1	36	36	foodImage.111	FOODEEG_Images\0919.jpg	NY	Left	No	0.883485199999996	0	248861	253
486.9296875	0	taste	response	1	36	36	foodImage.111	FOODEEG_Images\0919.jpg	NY	Left	No	0.883485199999996	0	249309	234
487.9765625	1	taste	trialStart	1	37	37	foodImage.83	FOODEEG_Images\0827.jpg	YN	Left	Yes	1.33696259999851	0	249845	251
489.033203125	2	taste	foodImageDisplay	1	37	37	foodImage.83	FOODEEG_Images\0827.jpg	YN	Left	Yes	1.33696259999851	0	250386	252
491.095703125	1.33696259999851	taste	choicePhaseStart	1	37	37	foodImage.83	FOODEEG_Images\0827.jpg	YN	Left	Yes	1.33696259999851	0	251442	253
492.423828125	0	taste	response	1	37	37	foodImage.83	FOODEEG_Images\0827.jpg	YN	Left	Yes	1.33696259999851	0	252122	234
493.466796875	1	taste	trialStart	1	38	38	foodImage.95	FOODEEG_Images\0903.jpg	YN	Right	No	0.994360099997721	0	252656	251
494.50390625	2	taste	foodImageDisplay	1	38	38	foodImage.95	FOODEEG_Images\0903.jpg	YN	Right	No	0.994360099997721	0	253187	252
496.56640625	0.994360099997721	taste	choicePhaseStart	1	38	38	foodImage.95	FOODEEG_Images\0903.jpg	YN	Right	No	0.994360099997721	0	254243	253
497.552734375	0	taste	response	1	38	38	foodImage.95	FOODEEG_Images\0903.jpg	YN	Right	No	0.994360099997721	0	254748	235
498.59375	1	health	trialStart	1	39	39	foodImage.22	FOODEEG_Images\0236.jpg	NY	Right	Yes	0.965293699999165	0	255281	251
499.63671875	2	health	foodImageDisplay	1	39	39	foodImage.22	FOODEEG_Images\0236.jpg	NY	Right	Yes	0.965293699999165	0	255815	252
501.69921875	0.965293699999165	health	choicePhaseStart	1	39	39	foodImage.22	FOODEEG_Images\0236.jpg	NY	Right	Yes	0.965293699999165	0	256871	253
502.65625	0	health	response	1	39	39	foodImage.22	FOODEEG_Images\0236.jpg	NY	Right	Yes	0.965293699999165	0	257361	235
503.697265625	1	taste	trialStart	1	40	40	foodImage.7	FOODEEG_Images\0116.jpg	NY	Right	Yes	0.736081900002318	0	257894	251
504.73828125	2	taste	foodImageDisplay	1	40	40	foodImage.7	FOODEEG_Images\0116.jpg	NY	Right	Yes	0.736081900002318	0	258427	252
506.80078125	0.736081900002318	taste	choicePhaseStart	1	40	40	foodImage.7	FOODEEG_Images\0116.jpg	NY	Right	Yes	0.736081900002318	0	259483	253
507.52734375	0	taste	response	1	40	40	foodImage.7	FOODEEG_Images\0116.jpg	NY	Right	Yes	0.736081900002318	0	259855	235
508.572265625	1	taste	trialStart	1	41	41	foodImage.36	FOODEEG_Images\0352.jpg	NY	Right	Yes	1.06971290000365	0	260390	251
509.626953125	2	taste	foodImageDisplay	1	41	41	foodImage.36	FOODEEG_Images\0352.jpg	NY	Right	Yes	1.06971290000365	0	260930	252
511.69140625	1.06971290000365	taste	choicePhaseStart	1	41	41	foodImage.36	FOODEEG_Images\0352.jpg	NY	Right	Yes	1.06971290000365	0	261987	253
512.751953125	0	taste	response	1	41	41	foodImage.36	FOODEEG_Images\0352.jpg	NY	Right	Yes	1.06971290000365	0	262530	235
513.794921875	1	decision	trialStart	1	42	42	foodImage.35	FOODEEG_Images\0350.jpg	YN	Right	No	1.22846829999617	0	263064	251
514.833984375	2	decision	foodImageDisplay	1	42	42	foodImage.35	FOODEEG_Images\0350.jpg	YN	Right	No	1.22846829999617	0	263596	252
516.8984375	1.22846829999617	decision	choicePhaseStart	1	42	42	foodImage.35	FOODEEG_Images\0350.jpg	YN	Right	No	1.22846829999617	0	264653	253
518.119140625	0	decision	response	1	42	42	foodImage.35	FOODEEG_Images\0350.jpg	YN	Right	No	1.22846829999617	0	265278	235
519.16015625	1	taste	trialStart	1	43	43	foodImage.38	FOODEEG_Images\0365.jpg	YN	Left	Yes	1.12787820000085	0	265811	251
520.19921875	2	taste	foodImageDisplay	1	43	43	foodImage.38	FOODEEG_Images\0365.jpg	YN	Left	Yes	1.12787820000085	0	266343	252
522.263671875	1.12787820000085	taste	choicePhaseStart	1	43	43	foodImage.38	FOODEEG_Images\0365.jpg	YN	Left	Yes	1.12787820000085	0	267400	253
523.3828125	0	taste	response	1	43	43	foodImage.38	FOODEEG_Images\0365.jpg	YN	Left	Yes	1.12787820000085	0	267973	234
524.423828125	1	decision	trialStart	1	44	44	foodImage.115	FOODEEG_Images\0923.jpg	NY	Left	No	1.19390310000017	0	268506	251
525.462890625	2	decision	foodImageDisplay	1	44	44	foodImage.115	FOODEEG_Images\0923.jpg	NY	Left	No	1.19390310000017	0	269038	252
527.525390625	1.19390310000017	decision	choicePhaseStart	1	44	44	foodImage.115	FOODEEG_Images\0923.jpg	NY	Left	No	1.19390310000017	0	270094	253
528.7109375	0	decision	response	1	44	44	foodImage.115	FOODEEG_Images\0923.jpg	NY	Left	No	1.19390310000017	0	270701	234
529.75390625	1	health	trialStart	1	45	45	foodImage.76	FOODEEG_Images\0766.jpg	YN	Left	Yes	0.976883900002576	0	271235	251
530.798828125	2	health	foodImageDisplay	1	45	45	foodImage.76	FOODEEG_Images\0766.jpg	YN	Left	Yes	0.976883900002576	0	271770	252
532.86328125	0.976883900002576	health	choicePhaseStart	1	45	45	foodImage.76	FOODEEG_Images\0766.jpg	YN	Left	Yes	0.976883900002576	0	272827	253
533.83203125	0	health	response	1	45	45	foodImage.76	FOODEEG_Images\0766.jpg	YN	Left	Yes	0.976883900002576	0	273323	234
534.87109375	1	taste	trialStart	1	46	46	foodImage.107	FOODEEG_Images\0915.jpg	NY	Left	No	1.08997630000522	0	273855	251
535.91015625	2	taste	foodImageDisplay	1	46	46	foodImage.107	FOODEEG_Images\0915.jpg	NY	Left	No	1.08997630000522	0	274387	252
537.974609375	1.08997630000522	taste	choicePhaseStart	1	46	46	foodImage.107	FOODEEG_Images\0915.jpg	NY	Left	No	1.08997630000522	0	275444	253
539.0546875	0	taste	response	1	46	46	foodImage.107	FOODEEG_Images\0915.jpg	NY	Left	No	1.08997630000522	0	275997	234
540.095703125	1	decision	trialStart	1	47	47	foodImage.96	FOODEEG_Images\0904.jpg	YN	Right	No	1.10699800000293	0	276530	251
541.1328125	2	decision	foodImageDisplay	1	47	47	foodImage.96	FOODEEG_Images\0904.jpg	YN	Right	No	1.10699800000293	0	277061	252
543.197265625	1.10699800000293	decision	choicePhaseStart	1	47	47	foodImage.96	FOODEEG_Images\0904.jpg	YN	Right	No	1.10699800000293	0	278118	253
544.294921875	0	decision	response	1	47	47	foodImage.96	FOODEEG_Images\0904.jpg	YN	Right	No	1.10699800000293	0	278680	235
545.3359375	1	decision	trialStart	1	48	48	foodImage.6	FOODEEG_Images\0113.jpg	NY	Right	Yes	1.23859559999983	0	279213	251
546.376953125	2	decision	foodImageDisplay	1	48	48	foodImage.6	FOODEEG_Images\0113.jpg	NY	Right	Yes	1.23859559999983	0	279746	252
548.44140625	1.23859559999983	decision	choicePhaseStart	1	48	48	foodImage.6	FOODEEG_Images\0113.jpg	NY	Right	Yes	1.23859559999983	0	280803	253
549.669921875	0	decision	response	1	48	48	foodImage.6	FOODEEG_Images\0113.jpg	NY	Right	Yes	1.23859559999983	0	281432	235
550.712890625	1	health	trialStart	1	49	49	foodImage.46	FOODEEG_Images\0479.jpg	YN	Left	Yes	0.910061499998847	0	281966	251
551.76953125	2	health	foodImageDisplay	1	49	49	foodImage.46	FOODEEG_Images\0479.jpg	YN	Left	Yes	0.910061499998847	0	282507	252
553.83203125	0.910061499998847	health	choicePhaseStart	1	49	49	foodImage.46	FOODEEG_Images\0479.jpg	YN	Left	Yes	0.910061499998847	0	283563	253
554.734375	0	health	response	1	49	49	foodImage.46	FOODEEG_Images\0479.jpg	YN	Left	Yes	0.910061499998847	0	284025	234
555.775390625	1	decision	trialStart	1	50	50	foodImage.88	FOODEEG_Images\0878.jpg	YN	Left	Yes	0.87550889999693	0	284558	251
556.828125	2	decision	foodImageDisplay	1	50	50	foodImage.88	FOODEEG_Images\0878.jpg	YN	Left	Yes	0.87550889999693	0	285097	252
558.892578125	0.87550889999693	decision	choicePhaseStart	1	50	50	foodImage.88	FOODEEG_Images\0878.jpg	YN	Left	Yes	0.87550889999693	0	286154	253
559.7578125	0	decision	response	1	50	50	foodImage.88	FOODEEG_Images\0878.jpg	YN	Left	Yes	0.87550889999693	0	286597	234
560.80078125	1	health	trialStart	1	51	51	foodImage.104	FOODEEG_Images\0912.jpg	YN	Right	No	1.52905850000388	0	287131	251
561.837890625	2	health	foodImageDisplay	1	51	51	foodImage.104	FOODEEG_Images\0912.jpg	YN	Right	No	1.52905850000388	0	287662	252
563.90234375	1.52905850000388	health	choicePhaseStart	1	51	51	foodImage.104	FOODEEG_Images\0912.jpg	YN	Right	No	1.52905850000388	0	288719	253
565.421875	0	health	response	1	51	51	foodImage.104	FOODEEG_Images\0912.jpg	YN	Right	No	1.52905850000388	0	289497	235
566.462890625	1	health	trialStart	1	52	52	foodImage.103	FOODEEG_Images\0911.jpg	YN	Right	No	1.67601229999855	0	290030	251
567.5	2	health	foodImageDisplay	1	52	52	foodImage.103	FOODEEG_Images\0911.jpg	YN	Right	No	1.67601229999855	0	290561	252
569.5625	1.67601229999855	health	choicePhaseStart	1	52	52	foodImage.103	FOODEEG_Images\0911.jpg	YN	Right	No	1.67601229999855	0	291617	253
571.23046875	0	health	response	1	52	52	foodImage.103	FOODEEG_Images\0911.jpg	YN	Right	No	1.67601229999855	0	292471	235
572.26953125	1	taste	trialStart	1	53	53	foodImage.90	FOODEEG_Images\0890.jpg	YN	Left	Yes	0.952301299999817	0	293003	251
573.328125	2	taste	foodImageDisplay	1	53	53	foodImage.90	FOODEEG_Images\0890.jpg	YN	Left	Yes	0.952301299999817	0	293545	252
575.390625	0.952301299999817	taste	choicePhaseStart	1	53	53	foodImage.90	FOODEEG_Images\0890.jpg	YN	Left	Yes	0.952301299999817	0	294601	253
576.333984375	0	taste	response	1	53	53	foodImage.90	FOODEEG_Images\0890.jpg	YN	Left	Yes	0.952301299999817	0	295084	234
577.376953125	1	decision	trialStart	1	54	54	foodImage.26	FOODEEG_Images\0262.jpg	YN	Right	No	1.6992315000025	0	295618	251
578.419921875	2	decision	foodImageDisplay	1	54	54	foodImage.26	FOODEEG_Images\0262.jpg	YN	Right	No	1.6992315000025	0	296152	252
580.482421875	1.6992315000025	decision	choicePhaseStart	1	54	54	foodImage.26	FOODEEG_Images\0262.jpg	YN	Right	No	1.6992315000025	0	297208	253
582.173828125	0	decision	response	1	54	54	foodImage.26	FOODEEG_Images\0262.jpg	YN	Right	No	1.6992315000025	0	298074	235
583.21484375	1	health	trialStart	1	55	55	foodImage.57	FOODEEG_Images\0587.jpg	YN	Right	No	1.58089109999855	0	298607	251
584.2578125	2	health	foodImageDisplay	1	55	55	foodImage.57	FOODEEG_Images\0587.jpg	YN	Right	No	1.58089109999855	0	299141	252
586.322265625	1.58089109999855	health	choicePhaseStart	1	55	55	foodImage.57	FOODEEG_Images\0587.jpg	YN	Right	No	1.58089109999855	0	300198	253
587.892578125	0	health	response	1	55	55	foodImage.57	FOODEEG_Images\0587.jpg	YN	Right	No	1.58089109999855	0	301002	235
588.93359375	1	taste	trialStart	1	56	56	foodImage.93	FOODEEG_Images\0901.jpg	YN	Right	No	0.738501500003622	0	301535	251
589.970703125	2	taste	foodImageDisplay	1	56	56	foodImage.93	FOODEEG_Images\0901.jpg	YN	Right	No	0.738501500003622	0	302066	252
592.03515625	0.738501500003622	taste	choicePhaseStart	1	56	56	foodImage.93	FOODEEG_Images\0901.jpg	YN	Right	No	0.738501500003622	0	303123	253
592.765625	0	taste	response	1	56	56	foodImage.93	FOODEEG_Images\0901.jpg	YN	Right	No	0.738501500003622	0	303497	235
593.8046875	1	decision	trialStart	1	57	57	foodImage.89	FOODEEG_Images\0881.jpg	YN	Left	Yes	0.609677100001136	0	304029	251
594.859375	2	decision	foodImageDisplay	1	57	57	foodImage.89	FOODEEG_Images\0881.jpg	YN	Left	Yes	0.609677100001136	0	304569	252
596.923828125	0.609677100001136	decision	choicePhaseStart	1	57	57	foodImage.89	FOODEEG_Images\0881.jpg	YN	Left	Yes	0.609677100001136	0	305626	253
597.525390625	0	decision	response	1	57	57	foodImage.89	FOODEEG_Images\0881.jpg	YN	Left	Yes	0.609677100001136	0	305934	234
598.568359375	1	taste	trialStart	1	58	58	foodImage.65	FOODEEG_Images\0658.jpg	NY	Right	Yes	1.4503235000011	0	306468	251
599.609375	2	taste	foodImageDisplay	1	58	58	foodImage.65	FOODEEG_Images\0658.jpg	NY	Right	Yes	1.4503235000011	0	307001	252
601.67578125	1.4503235000011	taste	choicePhaseStart	1	58	58	foodImage.65	FOODEEG_Images\0658.jpg	NY	Right	Yes	1.4503235000011	0	308059	253
603.1171875	0	taste	response	1	58	58	foodImage.65	FOODEEG_Images\0658.jpg	NY	Right	Yes	1.4503235000011	0	308797	235
604.158203125	1	health	trialStart	1	59	59	foodImage.19	FOODEEG_Images\0225.jpg	YN	Left	Yes	1.75036540000292	0	309330	251
605.19921875	2	health	foodImageDisplay	1	59	59	foodImage.19	FOODEEG_Images\0225.jpg	YN	Left	Yes	1.75036540000292	0	309863	252
607.263671875	1.75036540000292	health	choicePhaseStart	1	59	59	foodImage.19	FOODEEG_Images\0225.jpg	YN	Left	Yes	1.75036540000292	0	310920	253
609.00390625	0	health	response	1	59	59	foodImage.19	FOODEEG_Images\0225.jpg	YN	Left	Yes	1.75036540000292	0	311811	234
610.046875	1	taste	trialStart	1	60	60	foodImage.96	FOODEEG_Images\0904.jpg	YN	Right	No	1.24591919999511	0	312345	251
611.0859375	2	taste	foodImageDisplay	1	60	60	foodImage.96	FOODEEG_Images\0904.jpg	YN	Right	No	1.24591919999511	0	312877	252
613.15234375	1.24591919999511	taste	choicePhaseStart	1	60	60	foodImage.96	FOODEEG_Images\0904.jpg	YN	Right	No	1.24591919999511	0	313935	253
614.38671875	0	taste	response	1	60	60	foodImage.96	FOODEEG_Images\0904.jpg	YN	Right	No	1.24591919999511	0	314567	235
616.4296875	23.404296875	n/a	blockEnd	n/a	n/a	n/a	n/a	n/a	n/a	n/a	n/a	n/a	n/a	315613	254
639.833984375	2	n/a	blockStart	2	n/a	n/a	n/a	n/a	n/a	n/a	n/a	n/a	n/a	327596	250
641.8671875	1	health	trialStart	2	61	1	foodImage.86	FOODEEG_Images\0844.jpg	NY	Left	No	1.38657180000155	0	328637	251
642.927734375	2	health	foodImageDisplay	2	61	1	foodImage.86	FOODEEG_Images\0844.jpg	NY	Left	No	1.38657180000155	0	329180	252
644.9921875	1.38657180000155	health	choicePhaseStart	2	61	1	foodImage.86	FOODEEG_Images\0844.jpg	NY	Left	No	1.38657180000155	0	330237	253
646.37109375	0	health	response	2	61	1	foodImage.86	FOODEEG_Images\0844.jpg	NY	Left	No	1.38657180000155	0	330943	234
647.416015625	1	taste	trialStart	2	62	2	foodImage.2	FOODEEG_Images\0028.jpg	NY	Right	Yes	0.739271200000076	0	331478	251
648.45703125	2	taste	foodImageDisplay	2	62	2	foodImage.2	FOODEEG_Images\0028.jpg	NY	Right	Yes	0.739271200000076	0	332011	252
650.51953125	0.739271200000076	taste	choicePhaseStart	2	62	2	foodImage.2	FOODEEG_Images\0028.jpg	NY	Right	Yes	0.739271200000076	0	333067	253
651.25	0	taste	response	2	62	2	foodImage.2	FOODEEG_Images\0028.jpg	NY	Right	Yes	0.739271200000076	0	333441	235
652.29296875	1	decision	trialStart	2	63	3	foodImage.53	FOODEEG_Images\0547.jpg	NY	Right	Yes	0.726942699999199	0	333975	251
653.349609375	2	decision	foodImageDisplay	2	63	3	foodImage.53	FOODEEG_Images\0547.jpg	NY	Right	Yes	0.726942699999199	0	334516	252
655.412109375	0.726942699999199	decision	choicePhaseStart	2	63	3	foodImage.53	FOODEEG_Images\0547.jpg	NY	Right	Yes	0.726942699999199	0	335572	253
656.130859375	0	decision	response	2	63	3	foodImage.53	FOODEEG_Images\0547.jpg	NY	Right	Yes	0.726942699999199	0	335940	235
657.171875	1	health	trialStart	2	64	4	foodImage.113	FOODEEG_Images\0921.jpg	NY	Right	Yes	1.11167790000036	0	336473	251
658.208984375	2	health	foodImageDisplay	2	64	4	foodImage.113	FOODEEG_Images\0921.jpg	NY	Right	Yes	1.11167790000036	0	337004	252
660.271484375	1.11167790000036	health	choicePhaseStart	2	64	4	foodImage.113	FOODEEG_Images\0921.jpg	NY	Right	Yes	1.11167790000036	0	338060	253
661.376953125	0	health	response	2	64	4	foodImage.113	FOODEEG_Images\0921.jpg	NY	Right	Yes	1.11167790000036	0	338626	235
662.419921875	1	decision	trialStart	2	65	5	foodImage.65	FOODEEG_Images\0658.jpg	NY	Left	No	2.01824320000014	0	339160	251
663.462890625	2	decision	foodImageDisplay	2	65	5	foodImage.65	FOODEEG_Images\0658.jpg	NY	Left	No	2.01824320000014	0	339694	252
665.525390625	2.01824320000014	decision	choicePhaseStart	2	65	5	foodImage.65	FOODEEG_Images\0658.jpg	NY	Left	No	2.01824320000014	0	340750	253
667.537109375	0	decision	response	2	65	5	foodImage.65	FOODEEG_Images\0658.jpg	NY	Left	No	2.01824320000014	0	341780	234
668.578125	1	decision	trialStart	2	66	6	foodImage.3	FOODEEG_Images\0046.jpg	YN	Left	Yes	0.81585030000133	0	342313	251
669.62109375	2	decision	foodImageDisplay	2	66	6	foodImage.3	FOODEEG_Images\0046.jpg	YN	Left	Yes	0.81585030000133	0	342847	252
671.68359375	0.81585030000133	decision	choicePhaseStart	2	66	6	foodImage.3	FOODEEG_Images\0046.jpg	YN	Left	Yes	0.81585030000133	0	343903	253
672.490234375	0	decision	response	2	66	6	foodImage.3	FOODEEG_Images\0046.jpg	YN	Left	Yes	0.81585030000133	0	344316	234
673.533203125	1	taste	trialStart	2	67	7	foodImage.115	FOODEEG_Images\0923.jpg	NY	Left	No	2.27780270000221	0	344850	251
674.572265625	2	taste	foodImageDisplay	2	67	7	foodImage.115	FOODEEG_Images\0923.jpg	NY	Left	No	2.27780270000221	0	345382	252
676.63671875	2.27780270000221	taste	choicePhaseStart	2	67	7	foodImage.115	FOODEEG_Images\0923.jpg	NY	Left	No	2.27780270000221	0	346439	253
678.904296875	0	taste	response	2	67	7	foodImage.115	FOODEEG_Images\0923.jpg	NY	Left	No	2.27780270000221	0	347600	234
679.947265625	1	health	trialStart	2	68	8	foodImage.26	FOODEEG_Images\0262.jpg	NY	Right	Yes	1.24543870000343	0	348134	251
680.990234375	2	health	foodImageDisplay	2	68	8	foodImage.26	FOODEEG_Images\0262.jpg	NY	Right	Yes	1.24543870000343	0	348668	252
683.052734375	1.24543870000343	health	choicePhaseStart	2	68	8	foodImage.26	FOODEEG_Images\0262.jpg	NY	Right	Yes	1.24543870000343	0	349724	253
684.2890625	0	health	response	2	68	8	foodImage.26	FOODEEG_Images\0262.jpg	NY	Right	Yes	1.24543870000343	0	350357	235
685.33203125	1	decision	trialStart	2	69	9	foodImage.12	FOODEEG_Images\0181.jpg	NY	Right	Yes	1.22132020000572	0	350891	251
686.373046875	2	decision	foodImageDisplay	2	69	9	foodImage.12	FOODEEG_Images\0181.jpg	NY	Right	Yes	1.22132020000572	0	351424	252
688.4375	1.22132020000572	decision	choicePhaseStart	2	69	9	foodImage.12	FOODEEG_Images\0181.jpg	NY	Right	Yes	1.22132020000572	0	352481	253
689.6484375	0	decision	response	2	69	9	foodImage.12	FOODEEG_Images\0181.jpg	NY	Right	Yes	1.22132020000572	0	353101	235
690.693359375	1	health	trialStart	2	70	10	foodImage.50	FOODEEG_Images\0529.jpg	YN	Left	Yes	1.29750459999923	0	353636	251
691.751953125	2	health	foodImageDisplay	2	70	10	foodImage.50	FOODEEG_Images\0529.jpg	YN	Left	Yes	1.29750459999923	0	354178	252
693.81640625	1.29750459999923	health	choicePhaseStart	2	70	10	foodImage.50	FOODEEG_Images\0529.jpg	YN	Left	Yes	1.29750459999923	0	355235	253
695.10546875	0	health	response	2	70	10	foodImage.50	FOODEEG_Images\0529.jpg	YN	Left	Yes	1.29750459999923	0	355895	234
696.146484375	1	decision	trialStart	2	71	11	foodImage.112	FOODEEG_Images\0920.jpg	NY	Left	No	1.6143557999967	0	356428	251
697.1875	2	decision	foodImageDisplay	2	71	11	foodImage.112	FOODEEG_Images\0920.jpg	NY	Left	No	1.6143557999967	0	356961	252
699.251953125	1.6143557999967	decision	choicePhaseStart	2	71	11	foodImage.112	FOODEEG_Images\0920.jpg	NY	Left	No	1.6143557999967	0	358018	253
700.85546875	0	decision	response	2	71	11	foodImage.112	FOODEEG_Images\0920.jpg	NY	Left	No	1.6143557999967	0	358839	234
701.896484375	1	health	trialStart	2	72	12	foodImage.106	FOODEEG_Images\0914.jpg	YN	Right	No	1.31194700000196	0	359372	251
702.9375	2	health	foodImageDisplay	2	72	12	foodImage.106	FOODEEG_Images\0914.jpg	YN	Right	No	1.31194700000196	0	359905	252
705	1.31194700000196	health	choicePhaseStart	2	72	12	foodImage.106	FOODEEG_Images\0914.jpg	YN	Right	No	1.31194700000196	0	360961	253
706.3046875	0	health	response	2	72	12	foodImage.106	FOODEEG_Images\0914.jpg	YN	Right	No	1.31194700000196	0	361629	235
707.34765625	1	health	trialStart	2	73	13	foodImage.112	FOODEEG_Images\0920.jpg	NY	Left	No	1.87024299999757	0	362163	251
708.38671875	2	health	foodImageDisplay	2	73	13	foodImage.112	FOODEEG_Images\0920.jpg	NY	Left	No	1.87024299999757	0	362695	252
710.451171875	1.87024299999757	health	choicePhaseStart	2	73	13	foodImage.112	FOODEEG_Images\0920.jpg	NY	Left	No	1.87024299999757	0	363752	253
712.3125	0	health	response	2	73	13	foodImage.112	FOODEEG_Images\0920.jpg	NY	Left	No	1.87024299999757	0	364705	234
713.353515625	1	taste	trialStart	2	74	14	foodImage.63	FOODEEG_Images\0645.jpg	NY	Left	No	0.957155000003695	0	365238	251
714.39453125	2	taste	foodImageDisplay	2	74	14	foodImage.63	FOODEEG_Images\0645.jpg	NY	Left	No	0.957155000003695	0	365771	252
716.458984375	0.957155000003695	taste	choicePhaseStart	2	74	14	foodImage.63	FOODEEG_Images\0645.jpg	NY	Left	No	0.957155000003695	0	366828	253
717.408203125	0	taste	response	2	74	14	foodImage.63	FOODEEG_Images\0645.jpg	NY	Left	No	0.957155000003695	0	367314	234
718.44921875	1	decision	trialStart	2	75	15	foodImage.98	FOODEEG_Images\0906.jpg	YN	Right	No	1.54084259999945	0	367847	251
719.490234375	2	decision	foodImageDisplay	2	75	15	foodImage.98	FOODEEG_Images\0906.jpg	YN	Right	No	1.54084259999945	0	368380	252
721.552734375	1.54084259999945	decision	choicePhaseStart	2	75	15	foodImage.98	FOODEEG_Images\0906.jpg	YN	Right	No	1.54084259999945	0	369436	253
723.087890625	0	decision	response	2	75	15	foodImage.98	FOODEEG_Images\0906.jpg	YN	Right	No	1.54084259999945	0	370222	235
724.12890625	1	decision	trialStart	2	76	16	foodImage.5	FOODEEG_Images\0107.jpg	NY	Right	Yes	1.01527989999886	0	370755	251
725.185546875	2	decision	foodImageDisplay	2	76	16	foodImage.5	FOODEEG_Images\0107.jpg	NY	Right	Yes	1.01527989999886	0	371296	252
727.25	1.01527989999886	decision	choicePhaseStart	2	76	16	foodImage.5	FOODEEG_Images\0107.jpg	NY	Right	Yes	1.01527989999886	0	372353	253
728.255859375	0	decision	response	2	76	16	foodImage.5	FOODEEG_Images\0107.jpg	NY	Right	Yes	1.01527989999886	0	372868	235
729.298828125	1	health	trialStart	2	77	17	foodImage.94	FOODEEG_Images\0902.jpg	YN	Left	Yes	2.08608960000129	0	373402	251
730.337890625	2	health	foodImageDisplay	2	77	17	foodImage.94	FOODEEG_Images\0902.jpg	YN	Left	Yes	2.08608960000129	0	373934	252
732.40234375	2.08608960000129	health	choicePhaseStart	2	77	17	foodImage.94	FOODEEG_Images\0902.jpg	YN	Left	Yes	2.08608960000129	0	374991	253
734.478515625	0	health	response	2	77	17	foodImage.94	FOODEEG_Images\0902.jpg	YN	Left	Yes	2.08608960000129	0	376054	234
735.51953125	1	health	trialStart	2	78	18	foodImage.79	FOODEEG_Images\0794.jpg	NY	Right	Yes	2.00242250000156	0	376587	251
736.564453125	2	health	foodImageDisplay	2	78	18	foodImage.79	FOODEEG_Images\0794.jpg	NY	Right	Yes	2.00242250000156	0	377122	252
738.62890625	2.00242250000156	health	choicePhaseStart	2	78	18	foodImage.79	FOODEEG_Images\0794.jpg	NY	Right	Yes	2.00242250000156	0	378179	253
740.623046875	0	health	response	2	78	18	foodImage.79	FOODEEG_Images\0794.jpg	NY	Right	Yes	2.00242250000156	0	379200	235
741.6640625	1	health	trialStart	2	79	19	foodImage.25	FOODEEG_Images\0261.jpg	YN	Left	Yes	0.766874100001587	0	379733	251
742.705078125	2	health	foodImageDisplay	2	79	19	foodImage.25	FOODEEG_Images\0261.jpg	YN	Left	Yes	0.766874100001587	0	380266	252
744.76953125	0.766874100001587	health	choicePhaseStart	2	79	19	foodImage.25	FOODEEG_Images\0261.jpg	YN	Left	Yes	0.766874100001587	0	381323	253
745.525390625	0	health	response	2	79	19	foodImage.25	FOODEEG_Images\0261.jpg	YN	Left	Yes	0.766874100001587	0	381710	234
746.568359375	1	decision	trialStart	2	80	20	foodImage.73	FOODEEG_Images\0717.jpg	NY	Left	No	1.81613909999578	0	382244	251
747.62890625	2	decision	foodImageDisplay	2	80	20	foodImage.73	FOODEEG_Images\0717.jpg	NY	Left	No	1.81613909999578	0	382787	252
749.69140625	1.81613909999578	decision	choicePhaseStart	2	80	20	foodImage.73	FOODEEG_Images\0717.jpg	NY	Left	No	1.81613909999578	0	383843	253
751.501953125	0	decision	response	2	80	20	foodImage.73	FOODEEG_Images\0717.jpg	NY	Left	No	1.81613909999578	0	384770	234
752.54296875	1	taste	trialStart	2	81	21	foodImage.51	FOODEEG_Images\0536.jpg	YN	Left	Yes	1.65532469999744	0	385303	251
753.587890625	2	taste	foodImageDisplay	2	81	21	foodImage.51	FOODEEG_Images\0536.jpg	YN	Left	Yes	1.65532469999744	0	385838	252
755.65625	1.65532469999744	taste	choicePhaseStart	2	81	21	foodImage.51	FOODEEG_Images\0536.jpg	YN	Left	Yes	1.65532469999744	0	386897	253
757.302734375	0	taste	response	2	81	21	foodImage.51	FOODEEG_Images\0536.jpg	YN	Left	Yes	1.65532469999744	0	387740	234
758.345703125	1	decision	trialStart	2	82	22	foodImage.61	FOODEEG_Images\0640.jpg	YN	Left	Yes	1.17840760000399	0	388274	251
759.388671875	2	decision	foodImageDisplay	2	82	22	foodImage.61	FOODEEG_Images\0640.jpg	YN	Left	Yes	1.17840760000399	0	388808	252
761.451171875	1.17840760000399	decision	choicePhaseStart	2	82	22	foodImage.61	FOODEEG_Images\0640.jpg	YN	Left	Yes	1.17840760000399	0	389864	253
762.62109375	0	decision	response	2	82	22	foodImage.61	FOODEEG_Images\0640.jpg	YN	Left	Yes	1.17840760000399	0	390463	234
763.666015625	1	health	trialStart	2	83	23	foodImage.68	FOODEEG_Images\0685.jpg	NY	Left	No	1.31619250000222	0	390998	251
764.74609375	2	health	foodImageDisplay	2	83	23	foodImage.68	FOODEEG_Images\0685.jpg	NY	Left	No	1.31619250000222	0	391551	252
766.810546875	1.31619250000222	health	choicePhaseStart	2	83	23	foodImage.68	FOODEEG_Images\0685.jpg	NY	Left	No	1.31619250000222	0	392608	253
768.1171875	0	health	response	2	83	23	foodImage.68	FOODEEG_Images\0685.jpg	NY	Left	No	1.31619250000222	0	393277	234
769.16015625	1	decision	trialStart	2	84	24	foodImage.86	FOODEEG_Images\0844.jpg	NY	Right	Yes	1.48302719999629	0	393811	251
770.21875	2	decision	foodImageDisplay	2	84	24	foodImage.86	FOODEEG_Images\0844.jpg	NY	Right	Yes	1.48302719999629	0	394353	252
772.283203125	1.48302719999629	decision	choicePhaseStart	2	84	24	foodImage.86	FOODEEG_Images\0844.jpg	NY	Right	Yes	1.48302719999629	0	395410	253
773.7578125	0	decision	response	2	84	24	foodImage.86	FOODEEG_Images\0844.jpg	NY	Right	Yes	1.48302719999629	0	396165	235
774.798828125	1	decision	trialStart	2	85	25	foodImage.97	FOODEEG_Images\0905.jpg	NY	Left	No	0.953020400003879	0	396698	251
775.837890625	2	decision	foodImageDisplay	2	85	25	foodImage.97	FOODEEG_Images\0905.jpg	NY	Left	No	0.953020400003879	0	397230	252
777.900390625	0.953020400003879	decision	choicePhaseStart	2	85	25	foodImage.97	FOODEEG_Images\0905.jpg	NY	Left	No	0.953020400003879	0	398286	253
778.845703125	0	decision	response	2	85	25	foodImage.97	FOODEEG_Images\0905.jpg	NY	Left	No	0.953020400003879	0	398770	234
779.88671875	1	taste	trialStart	2	86	26	foodImage.3	FOODEEG_Images\0046.jpg	YN	Left	Yes	0.936788700004399	0	399303	251
780.951171875	2	taste	foodImageDisplay	2	86	26	foodImage.3	FOODEEG_Images\0046.jpg	YN	Left	Yes	0.936788700004399	0	399848	252
783.013671875	0.936788700004399	taste	choicePhaseStart	2	86	26	foodImage.3	FOODEEG_Images\0046.jpg	YN	Left	Yes	0.936788700004399	0	400904	253
783.94140625	0	taste	response	2	86	26	foodImage.3	FOODEEG_Images\0046.jpg	YN	Left	Yes	0.936788700004399	0	401379	234
784.982421875	1	taste	trialStart	2	87	27	foodImage.64	FOODEEG_Images\0647.jpg	YN	Left	Yes	1.95526729999983	0	401912	251
786.04296875	2	taste	foodImageDisplay	2	87	27	foodImage.64	FOODEEG_Images\0647.jpg	YN	Left	Yes	1.95526729999983	0	402455	252
788.107421875	1.95526729999983	taste	choicePhaseStart	2	87	27	foodImage.64	FOODEEG_Images\0647.jpg	YN	Left	Yes	1.95526729999983	0	403512	253
790.052734375	0	taste	response	2	87	27	foodImage.64	FOODEEG_Images\0647.jpg	YN	Left	Yes	1.95526729999983	0	404508	234
791.09765625	1	taste	trialStart	2	88	28	foodImage.92	FOODEEG_Images\0900.jpg	NY	Left	No	0.939565699998639	0	405043	251
792.13671875	2	taste	foodImageDisplay	2	88	28	foodImage.92	FOODEEG_Images\0900.jpg	NY	Left	No	0.939565699998639	0	405575	252
794.201171875	0.939565699998639	taste	choicePhaseStart	2	88	28	foodImage.92	FOODEEG_Images\0900.jpg	NY	Left	No	0.939565699998639	0	406632	253
795.1328125	0	taste	response	2	88	28	foodImage.92	FOODEEG_Images\0900.jpg	NY	Left	No	0.939565699998639	0	407109	234
796.17578125	1	taste	trialStart	2	89	29	foodImage.13	FOODEEG_Images\0183.jpg	NY	Right	Yes	1.81187659999705	0	407643	251
797.21875	2	taste	foodImageDisplay	2	89	29	foodImage.13	FOODEEG_Images\0183.jpg	NY	Right	Yes	1.81187659999705	0	408177	252
799.28125	1.81187659999705	taste	choicePhaseStart	2	89	29	foodImage.13	FOODEEG_Images\0183.jpg	NY	Right	Yes	1.81187659999705	0	409233	253
801.083984375	0	taste	response	2	89	29	foodImage.13	FOODEEG_Images\0183.jpg	NY	Right	Yes	1.81187659999705	0	410156	235
802.126953125	1	health	trialStart	2	90	30	foodImage.60	FOODEEG_Images\0614.jpg	YN	Right	No	2.01762659999804	0	410690	251
803.208984375	2	health	foodImageDisplay	2	90	30	foodImage.60	FOODEEG_Images\0614.jpg	YN	Right	No	2.01762659999804	0	411244	252
805.271484375	2.01762659999804	health	choicePhaseStart	2	90	30	foodImage.60	FOODEEG_Images\0614.jpg	YN	Right	No	2.01762659999804	0	412300	253
807.283203125	0	health	response	2	90	30	foodImage.60	FOODEEG_Images\0614.jpg	YN	Right	No	2.01762659999804	0	413330	235
808.328125	1	taste	trialStart	2	91	31	foodImage.27	FOODEEG_Images\0263.jpg	NY	Left	No	3.57572680000158	0	413865	251
809.37109375	2	taste	foodImageDisplay	2	91	31	foodImage.27	FOODEEG_Images\0263.jpg	NY	Left	No	3.57572680000158	0	414399	252
811.435546875	3.57572680000158	taste	choicePhaseStart	2	91	31	foodImage.27	FOODEEG_Images\0263.jpg	NY	Left	No	3.57572680000158	0	415456	253
815.00390625	0	taste	response	2	91	31	foodImage.27	FOODEEG_Images\0263.jpg	NY	Left	No	3.57572680000158	0	417283	234
816.046875	1	taste	trialStart	2	92	32	foodImage.24	FOODEEG_Images\0250.jpg	YN	Right	No	2.26683459999913	0	417817	251
817.08984375	2	taste	foodImageDisplay	2	92	32	foodImage.24	FOODEEG_Images\0250.jpg	YN	Right	No	2.26683459999913	0	418351	252
819.154296875	2.26683459999913	taste	choicePhaseStart	2	92	32	foodImage.24	FOODEEG_Images\0250.jpg	YN	Right	No	2.26683459999913	0	419408	253
821.412109375	0	taste	response	2	92	32	foodImage.24	FOODEEG_Images\0250.jpg	YN	Right	No	2.26683459999913	0	420564	235
822.45703125	1	health	trialStart	2	93	33	foodImage.52	FOODEEG_Images\0539.jpg	NY	Right	Yes	0.89797649999673	0	421099	251
823.513671875	2	health	foodImageDisplay	2	93	33	foodImage.52	FOODEEG_Images\0539.jpg	NY	Right	Yes	0.89797649999673	0	421640	252
825.578125	0.89797649999673	health	choicePhaseStart	2	93	33	foodImage.52	FOODEEG_Images\0539.jpg	NY	Right	Yes	0.89797649999673	0	422697	253
826.466796875	0	health	response	2	93	33	foodImage.52	FOODEEG_Images\0539.jpg	NY	Right	Yes	0.89797649999673	0	423152	235
827.509765625	1	health	trialStart	2	94	34	foodImage.117	FOODEEG_Images\0925.jpg	NY	Right	Yes	1.2092485999965	0	423686	251
828.546875	2	health	foodImageDisplay	2	94	34	foodImage.117	FOODEEG_Images\0925.jpg	NY	Right	Yes	1.2092485999965	0	424217	252
830.611328125	1.2092485999965	health	choicePhaseStart	2	94	34	foodImage.117	FOODEEG_Images\0925.jpg	NY	Right	Yes	1.2092485999965	0	425274	253
831.810546875	0	health	response	2	94	34	foodImage.117	FOODEEG_Images\0925.jpg	NY	Right	Yes	1.2092485999965	0	425888	235
832.853515625	1	taste	trialStart	2	95	35	foodImage.48	FOODEEG_Images\0494.jpg	NY	Right	Yes	1.64589529999648	0	426422	251
833.89453125	2	taste	foodImageDisplay	2	95	35	foodImage.48	FOODEEG_Images\0494.jpg	NY	Right	Yes	1.64589529999648	0	426955	252
835.95703125	1.64589529999648	taste	choicePhaseStart	2	95	35	foodImage.48	FOODEEG_Images\0494.jpg	NY	Right	Yes	1.64589529999648	0	428011	253
837.595703125	0	taste	response	2	95	35	foodImage.48	FOODEEG_Images\0494.jpg	NY	Right	Yes	1.64589529999648	0	428850	235
838.63671875	1	taste	trialStart	2	96	36	foodImage.37	FOODEEG_Images\0359.jpg	YN	Right	No	3.18931529999827	0	429383	251
839.6796875	2	taste	foodImageDisplay	2	96	36	foodImage.37	FOODEEG_Images\0359.jpg	YN	Right	No	3.18931529999827	0	429917	252
841.7421875	3.18931529999827	taste	choicePhaseStart	2	96	36	foodImage.37	FOODEEG_Images\0359.jpg	YN	Right	No	3.18931529999827	0	430973	253
844.921875	0	taste	response	2	96	36	foodImage.37	FOODEEG_Images\0359.jpg	YN	Right	No	3.18931529999827	0	432601	235
845.96484375	1	health	trialStart	2	97	37	foodImage.111	FOODEEG_Images\0919.jpg	YN	Left	Yes	1.75157149999723	0	433135	251
847.00390625	2	health	foodImageDisplay	2	97	37	foodImage.111	FOODEEG_Images\0919.jpg	YN	Left	Yes	1.75157149999723	0	433667	252
849.068359375	1.75157149999723	health	choicePhaseStart	2	97	37	foodImage.111	FOODEEG_Images\0919.jpg	YN	Left	Yes	1.75157149999723	0	434724	253
850.810546875	0	health	response	2	97	37	foodImage.111	FOODEEG_Images\0919.jpg	YN	Left	Yes	1.75157149999723	0	435616	234
851.853515625	1	health	trialStart	2	98	38	foodImage.100	FOODEEG_Images\0908.jpg	YN	Left	Yes	2.22098820000247	0	436150	251
852.892578125	2	health	foodImageDisplay	2	98	38	foodImage.100	FOODEEG_Images\0908.jpg	YN	Left	Yes	2.22098820000247	0	436682	252
854.95703125	2.22098820000247	health	choicePhaseStart	2	98	38	foodImage.100	FOODEEG_Images\0908.jpg	YN	Left	Yes	2.22098820000247	0	437739	253
857.169921875	0	health	response	2	98	38	foodImage.100	FOODEEG_Images\0908.jpg	YN	Left	Yes	2.22098820000247	0	438872	234
858.212890625	1	decision	trialStart	2	99	39	foodImage.24	FOODEEG_Images\0250.jpg	NY	Left	No	1.4843716999967	0	439406	251
859.255859375	2	decision	foodImageDisplay	2	99	39	foodImage.24	FOODEEG_Images\0250.jpg	NY	Left	No	1.4843716999967	0	439940	252
861.318359375	1.4843716999967	decision	choicePhaseStart	2	99	39	foodImage.24	FOODEEG_Images\0250.jpg	NY	Left	No	1.4843716999967	0	440996	253
862.794921875	0	decision	response	2	99	39	foodImage.24	FOODEEG_Images\0250.jpg	NY	Left	No	1.4843716999967	0	441752	234
863.8359375	1	decision	trialStart	2	100	40	foodImage.63	FOODEEG_Images\0645.jpg	YN	Right	No	1.42841770000086	0	442285	251
864.87890625	2	decision	foodImageDisplay	2	100	40	foodImage.63	FOODEEG_Images\0645.jpg	YN	Right	No	1.42841770000086	0	442819	252
866.943359375	1.42841770000086	decision	choicePhaseStart	2	100	40	foodImage.63	FOODEEG_Images\0645.jpg	YN	Right	No	1.42841770000086	0	443876	253
868.361328125	0	decision	response	2	100	40	foodImage.63	FOODEEG_Images\0645.jpg	YN	Right	No	1.42841770000086	0	444602	235
869.408203125	1	taste	trialStart	2	101	41	foodImage.119	FOODEEG_Images\0927.jpg	NY	Left	No	0.757384000004095	0	445138	251
870.447265625	2	taste	foodImageDisplay	2	101	41	foodImage.119	FOODEEG_Images\0927.jpg	NY	Left	No	0.757384000004095	0	445670	252
872.509765625	0.757384000004095	taste	choicePhaseStart	2	101	41	foodImage.119	FOODEEG_Images\0927.jpg	NY	Left	No	0.757384000004095	0	446726	253
873.2578125	0	taste	response	2	101	41	foodImage.119	FOODEEG_Images\0927.jpg	NY	Left	No	0.757384000004095	0	447109	234
874.296875	1	decision	trialStart	2	102	42	foodImage.111	FOODEEG_Images\0919.jpg	NY	Left	No	0.747009600003366	0	447641	251
875.3359375	2	decision	foodImageDisplay	2	102	42	foodImage.111	FOODEEG_Images\0919.jpg	NY	Left	No	0.747009600003366	0	448173	252
877.3984375	0.747009600003366	decision	choicePhaseStart	2	102	42	foodImage.111	FOODEEG_Images\0919.jpg	NY	Left	No	0.747009600003366	0	449229	253
878.13671875	0	decision	response	2	102	42	foodImage.111	FOODEEG_Images\0919.jpg	NY	Left	No	0.747009600003366	0	449607	234
879.1796875	1	decision	trialStart	2	103	43	foodImage.100	FOODEEG_Images\0908.jpg	NY	Right	Yes	1.24100760000147	0	450141	251
880.21875	2	decision	foodImageDisplay	2	103	43	foodImage.100	FOODEEG_Images\0908.jpg	NY	Right	Yes	1.24100760000147	0	450673	252
882.28125	1.24100760000147	decision	choicePhaseStart	2	103	43	foodImage.100	FOODEEG_Images\0908.jpg	NY	Right	Yes	1.24100760000147	0	451729	253
883.513671875	0	decision	response	2	103	43	foodImage.100	FOODEEG_Images\0908.jpg	NY	Right	Yes	1.24100760000147	0	452360	235
884.5546875	1	taste	trialStart	2	104	44	foodImage.80	FOODEEG_Images\0796.jpg	NY	Right	Yes	1.71488929999759	0	452893	251
885.615234375	2	taste	foodImageDisplay	2	104	44	foodImage.80	FOODEEG_Images\0796.jpg	NY	Right	Yes	1.71488929999759	0	453436	252
887.6796875	1.71488929999759	taste	choicePhaseStart	2	104	44	foodImage.80	FOODEEG_Images\0796.jpg	NY	Right	Yes	1.71488929999759	0	454493	253
889.384765625	0	taste	response	2	104	44	foodImage.80	FOODEEG_Images\0796.jpg	NY	Right	Yes	1.71488929999759	0	455366	235
890.427734375	1	health	trialStart	2	105	45	foodImage.23	FOODEEG_Images\0244.jpg	YN	Right	No	1.81164870000066	0	455900	251
891.470703125	2	health	foodImageDisplay	2	105	45	foodImage.23	FOODEEG_Images\0244.jpg	YN	Right	No	1.81164870000066	0	456434	252
893.53515625	1.81164870000066	health	choicePhaseStart	2	105	45	foodImage.23	FOODEEG_Images\0244.jpg	YN	Right	No	1.81164870000066	0	457491	253
895.3359375	0	health	response	2	105	45	foodImage.23	FOODEEG_Images\0244.jpg	YN	Right	No	1.81164870000066	0	458413	235
896.380859375	1	health	trialStart	2	106	46	foodImage.107	FOODEEG_Images\0915.jpg	YN	Right	No	2.51244230000157	0	458948	251
897.43359375	2	health	foodImageDisplay	2	106	46	foodImage.107	FOODEEG_Images\0915.jpg	YN	Right	No	2.51244230000157	0	459487	252
899.498046875	2.51244230000157	health	choicePhaseStart	2	106	46	foodImage.107	FOODEEG_Images\0915.jpg	YN	Right	No	2.51244230000157	0	460544	253
902	0	health	response	2	106	46	foodImage.107	FOODEEG_Images\0915.jpg	YN	Right	No	2.51244230000157	0	461825	235
903.04296875	1	health	trialStart	2	107	47	foodImage.64	FOODEEG_Images\0647.jpg	YN	Left	Yes	1.14113319999888	0	462359	251
904.099609375	2	health	foodImageDisplay	2	107	47	foodImage.64	FOODEEG_Images\0647.jpg	YN	Left	Yes	1.14113319999888	0	462900	252
906.1640625	1.14113319999888	health	choicePhaseStart	2	107	47	foodImage.64	FOODEEG_Images\0647.jpg	YN	Left	Yes	1.14113319999888	0	463957	253
907.296875	0	health	response	2	107	47	foodImage.64	FOODEEG_Images\0647.jpg	YN	Left	Yes	1.14113319999888	0	464537	234
908.33984375	1	health	trialStart	2	108	48	foodImage.101	FOODEEG_Images\0909.jpg	YN	Right	No	2.03637800000433	0	465071	251
909.376953125	2	health	foodImageDisplay	2	108	48	foodImage.101	FOODEEG_Images\0909.jpg	YN	Right	No	2.03637800000433	0	465602	252
911.44140625	2.03637800000433	health	choicePhaseStart	2	108	48	foodImage.101	FOODEEG_Images\0909.jpg	YN	Right	No	2.03637800000433	0	466659	253
913.470703125	0	health	response	2	108	48	foodImage.101	FOODEEG_Images\0909.jpg	YN	Right	No	2.03637800000433	0	467698	235
914.513671875	1	taste	trialStart	2	109	49	foodImage.33	FOODEEG_Images\0329.jpg	NY	Right	Yes	2.81247609999991	0	468232	251
915.556640625	2	taste	foodImageDisplay	2	109	49	foodImage.33	FOODEEG_Images\0329.jpg	NY	Right	Yes	2.81247609999991	0	468766	252
917.62109375	2.81247609999991	taste	choicePhaseStart	2	109	49	foodImage.33	FOODEEG_Images\0329.jpg	NY	Right	Yes	2.81247609999991	0	469823	253
920.423828125	0	taste	response	2	109	49	foodImage.33	FOODEEG_Images\0329.jpg	NY	Right	Yes	2.81247609999991	0	471258	235
921.466796875	1	taste	trialStart	2	110	50	foodImage.101	FOODEEG_Images\0909.jpg	YN	Right	No	1.22991679999541	0	471792	251
922.505859375	2	taste	foodImageDisplay	2	110	50	foodImage.101	FOODEEG_Images\0909.jpg	YN	Right	No	1.22991679999541	0	472324	252
924.5703125	1.22991679999541	taste	choicePhaseStart	2	110	50	foodImage.101	FOODEEG_Images\0909.jpg	YN	Right	No	1.22991679999541	0	473381	253
925.791015625	0	taste	response	2	110	50	foodImage.101	FOODEEG_Images\0909.jpg	YN	Right	No	1.22991679999541	0	474006	235
926.833984375	1	taste	trialStart	2	111	51	foodImage.110	FOODEEG_Images\0918.jpg	NY	Left	No	1.2001231999966	0	474540	251
927.873046875	2	taste	foodImageDisplay	2	111	51	foodImage.110	FOODEEG_Images\0918.jpg	NY	Left	No	1.2001231999966	0	475072	252
929.935546875	1.2001231999966	taste	choicePhaseStart	2	111	51	foodImage.110	FOODEEG_Images\0918.jpg	NY	Left	No	1.2001231999966	0	476128	253
931.126953125	0	taste	response	2	111	51	foodImage.110	FOODEEG_Images\0918.jpg	NY	Left	No	1.2001231999966	0	476738	234
932.169921875	1	health	trialStart	2	112	52	foodImage.118	FOODEEG_Images\0926.jpg	YN	Left	Yes	2.71300360000168	0	477272	251
933.208984375	2	health	foodImageDisplay	2	112	52	foodImage.118	FOODEEG_Images\0926.jpg	YN	Left	Yes	2.71300360000168	0	477804	252
935.271484375	2.71300360000168	health	choicePhaseStart	2	112	52	foodImage.118	FOODEEG_Images\0926.jpg	YN	Left	Yes	2.71300360000168	0	478860	253
937.974609375	0	health	response	2	112	52	foodImage.118	FOODEEG_Images\0926.jpg	YN	Left	Yes	2.71300360000168	0	480244	234
939.017578125	1	decision	trialStart	2	113	53	foodImage.16	FOODEEG_Images\0196.jpg	NY	Right	Yes	1.53297439999733	0	480778	251
940.076171875	2	decision	foodImageDisplay	2	113	53	foodImage.16	FOODEEG_Images\0196.jpg	NY	Right	Yes	1.53297439999733	0	481320	252
942.138671875	1.53297439999733	decision	choicePhaseStart	2	113	53	foodImage.16	FOODEEG_Images\0196.jpg	NY	Right	Yes	1.53297439999733	0	482376	253
943.662109375	0	decision	response	2	113	53	foodImage.16	FOODEEG_Images\0196.jpg	NY	Right	Yes	1.53297439999733	0	483156	235
944.705078125	1	taste	trialStart	2	114	54	foodImage.29	FOODEEG_Images\0278.jpg	YN	Left	Yes	1.93950100000075	0	483690	251
945.748046875	2	taste	foodImageDisplay	2	114	54	foodImage.29	FOODEEG_Images\0278.jpg	YN	Left	Yes	1.93950100000075	0	484224	252
947.8125	1.93950100000075	taste	choicePhaseStart	2	114	54	foodImage.29	FOODEEG_Images\0278.jpg	YN	Left	Yes	1.93950100000075	0	485281	253
949.7421875	0	taste	response	2	114	54	foodImage.29	FOODEEG_Images\0278.jpg	YN	Left	Yes	1.93950100000075	0	486269	234
950.78515625	1	decision	trialStart	2	115	55	foodImage.71	FOODEEG_Images\0713.jpg	YN	Left	Yes	1.49880899999698	0	486803	251
951.828125	2	decision	foodImageDisplay	2	115	55	foodImage.71	FOODEEG_Images\0713.jpg	YN	Left	Yes	1.49880899999698	0	487337	252
953.892578125	1.49880899999698	decision	choicePhaseStart	2	115	55	foodImage.71	FOODEEG_Images\0713.jpg	YN	Left	Yes	1.49880899999698	0	488394	253
955.3828125	0	decision	response	2	115	55	foodImage.71	FOODEEG_Images\0713.jpg	YN	Left	Yes	1.49880899999698	0	489157	234
956.421875	1	decision	trialStart	2	116	56	foodImage.84	FOODEEG_Images\0830.jpg	NY	Right	Yes	0.876412500001607	0	489689	251
957.482421875	2	decision	foodImageDisplay	2	116	56	foodImage.84	FOODEEG_Images\0830.jpg	NY	Right	Yes	0.876412500001607	0	490232	252
959.546875	0.876412500001607	decision	choicePhaseStart	2	116	56	foodImage.84	FOODEEG_Images\0830.jpg	NY	Right	Yes	0.876412500001607	0	491289	253
960.4140625	0	decision	response	2	116	56	foodImage.84	FOODEEG_Images\0830.jpg	NY	Right	Yes	0.876412500001607	0	491733	235
961.458984375	1	decision	trialStart	2	117	57	foodImage.67	FOODEEG_Images\0679.jpg	YN	Right	No	1.55393660000118	0	492268	251
962.517578125	2	decision	foodImageDisplay	2	117	57	foodImage.67	FOODEEG_Images\0679.jpg	YN	Right	No	1.55393660000118	0	492810	252
964.580078125	1.55393660000118	decision	choicePhaseStart	2	117	57	foodImage.67	FOODEEG_Images\0679.jpg	YN	Right	No	1.55393660000118	0	493866	253
966.125	0	decision	response	2	117	57	foodImage.67	FOODEEG_Images\0679.jpg	YN	Right	No	1.55393660000118	0	494657	235
967.169921875	1	taste	trialStart	2	118	58	foodImage.60	FOODEEG_Images\0614.jpg	NY	Right	Yes	1.41137189999426	0	495192	251
968.228515625	2	taste	foodImageDisplay	2	118	58	foodImage.60	FOODEEG_Images\0614.jpg	NY	Right	Yes	1.41137189999426	0	495734	252
970.291015625	1.41137189999426	taste	choicePhaseStart	2	118	58	foodImage.60	FOODEEG_Images\0614.jpg	NY	Right	Yes	1.41137189999426	0	496790	253
971.693359375	0	taste	response	2	118	58	foodImage.60	FOODEEG_Images\0614.jpg	NY	Right	Yes	1.41137189999426	0	497508	235
972.736328125	1	decision	trialStart	2	119	59	foodImage.13	FOODEEG_Images\0183.jpg	YN	Left	Yes	1.19367939999938	0	498042	251
973.779296875	2	decision	foodImageDisplay	2	119	59	foodImage.13	FOODEEG_Images\0183.jpg	YN	Left	Yes	1.19367939999938	0	498576	252
975.84375	1.19367939999938	decision	choicePhaseStart	2	119	59	foodImage.13	FOODEEG_Images\0183.jpg	YN	Left	Yes	1.19367939999938	0	499633	253
977.029296875	0	decision	response	2	119	59	foodImage.13	FOODEEG_Images\0183.jpg	YN	Left	Yes	1.19367939999938	0	500240	234
978.078125	1	taste	trialStart	2	120	60	foodImage.56	FOODEEG_Images\0586.jpg	YN	Left	Yes	2.41196240000136	0	500777	251
979.12109375	2	taste	foodImageDisplay	2	120	60	foodImage.56	FOODEEG_Images\0586.jpg	YN	Left	Yes	2.41196240000136	0	501311	252
981.185546875	2.41196240000136	taste	choicePhaseStart	2	120	60	foodImage.56	FOODEEG_Images\0586.jpg	YN	Left	Yes	2.41196240000136	0	502368	253
983.58984375	0	taste	response	2	120	60	foodImage.56	FOODEEG_Images\0586.jpg	YN	Left	Yes	2.41196240000136	0	503599	234
985.62890625	83.263671875	n/a	blockEnd	n/a	n/a	n/a	n/a	n/a	n/a	n/a	n/a	n/a	n/a	504643	254
1068.892578125	2	n/a	blockStart	3	n/a	n/a	n/a	n/a	n/a	n/a	n/a	n/a	n/a	547274	250
1070.927734375	1	health	trialStart	3	121	1	foodImage.90	FOODEEG_Images\0890.jpg	YN	Right	No	1.68622619999951	0	548316	251
1071.98828125	2	health	foodImageDisplay	3	121	1	foodImage.90	FOODEEG_Images\0890.jpg	YN	Right	No	1.68622619999951	0	548859	252
1074.05078125	1.68622619999951	health	choicePhaseStart	3	121	1	foodImage.90	FOODEEG_Images\0890.jpg	YN	Right	No	1.68622619999951	0	549915	253
1075.728515625	0	health	response	3	121	1	foodImage.90	FOODEEG_Images\0890.jpg	YN	Right	No	1.68622619999951	0	550774	235
1076.771484375	1	decision	trialStart	3	122	2	foodImage.14	FOODEEG_Images\0188.jpg	NY	Left	No	1.89941170000384	0	551308	251
1077.83203125	2	decision	foodImageDisplay	3	122	2	foodImage.14	FOODEEG_Images\0188.jpg	NY	Left	No	1.89941170000384	0	551851	252
1079.89453125	1.89941170000384	decision	choicePhaseStart	3	122	2	foodImage.14	FOODEEG_Images\0188.jpg	NY	Left	No	1.89941170000384	0	552907	253
1081.78515625	0	decision	response	3	122	2	foodImage.14	FOODEEG_Images\0188.jpg	NY	Left	No	1.89941170000384	0	553875	234
1082.828125	1	decision	trialStart	3	123	3	foodImage.87	FOODEEG_Images\0873.jpg	YN	Right	No	2.24196449999727	0	554409	251
1083.88671875	2	decision	foodImageDisplay	3	123	3	foodImage.87	FOODEEG_Images\0873.jpg	YN	Right	No	2.24196449999727	0	554951	252
1085.951171875	2.24196449999727	decision	choicePhaseStart	3	123	3	foodImage.87	FOODEEG_Images\0873.jpg	YN	Right	No	2.24196449999727	0	556008	253
1088.185546875	0	decision	response	3	123	3	foodImage.87	FOODEEG_Images\0873.jpg	YN	Right	No	2.24196449999727	0	557152	235
1089.23046875	1	health	trialStart	3	124	4	foodImage.49	FOODEEG_Images\0515.jpg	YN	Right	No	1.31354519999877	0	557687	251
1090.271484375	2	health	foodImageDisplay	3	124	4	foodImage.49	FOODEEG_Images\0515.jpg	YN	Right	No	1.31354519999877	0	558220	252
1092.3359375	1.31354519999877	health	choicePhaseStart	3	124	4	foodImage.49	FOODEEG_Images\0515.jpg	YN	Right	No	1.31354519999877	0	559277	253
1093.640625	0	health	response	3	124	4	foodImage.49	FOODEEG_Images\0515.jpg	YN	Right	No	1.31354519999877	0	559945	235
1094.68359375	1	decision	trialStart	3	125	5	foodImage.39	FOODEEG_Images\0367.jpg	NY	Right	Yes	0.930568100004166	0	560479	251
1095.72265625	2	decision	foodImageDisplay	3	125	5	foodImage.39	FOODEEG_Images\0367.jpg	NY	Right	Yes	0.930568100004166	0	561011	252
1097.791015625	0.930568100004166	decision	choicePhaseStart	3	125	5	foodImage.39	FOODEEG_Images\0367.jpg	NY	Right	Yes	0.930568100004166	0	562070	253
1098.712890625	0	decision	response	3	125	5	foodImage.39	FOODEEG_Images\0367.jpg	NY	Right	Yes	0.930568100004166	0	562542	235
1099.755859375	1	health	trialStart	3	126	6	foodImage.92	FOODEEG_Images\0900.jpg	YN	Right	No	1.34976330000063	0	563076	251
1100.794921875	2	health	foodImageDisplay	3	126	6	foodImage.92	FOODEEG_Images\0900.jpg	YN	Right	No	1.34976330000063	0	563608	252
1102.859375	1.34976330000063	health	choicePhaseStart	3	126	6	foodImage.92	FOODEEG_Images\0900.jpg	YN	Right	No	1.34976330000063	0	564665	253
1104.201171875	0	health	response	3	126	6	foodImage.92	FOODEEG_Images\0900.jpg	YN	Right	No	1.34976330000063	0	565352	235
1105.240234375	1	health	trialStart	3	127	7	foodImage.108	FOODEEG_Images\0916.jpg	YN	Right	No	1.21184789999825	0	565884	251
1106.279296875	2	health	foodImageDisplay	3	127	7	foodImage.108	FOODEEG_Images\0916.jpg	YN	Right	No	1.21184789999825	0	566416	252
1108.341796875	1.21184789999825	health	choicePhaseStart	3	127	7	foodImage.108	FOODEEG_Images\0916.jpg	YN	Right	No	1.21184789999825	0	567472	253
1109.544921875	0	health	response	3	127	7	foodImage.108	FOODEEG_Images\0916.jpg	YN	Right	No	1.21184789999825	0	568088	235
1110.587890625	1	taste	trialStart	3	128	8	foodImage.94	FOODEEG_Images\0902.jpg	NY	Right	Yes	1.57583000000159	0	568622	251
1111.626953125	2	taste	foodImageDisplay	3	128	8	foodImage.94	FOODEEG_Images\0902.jpg	NY	Right	Yes	1.57583000000159	0	569154	252
1113.6953125	1.57583000000159	taste	choicePhaseStart	3	128	8	foodImage.94	FOODEEG_Images\0902.jpg	NY	Right	Yes	1.57583000000159	0	570213	253
1115.263671875	0	taste	response	3	128	8	foodImage.94	FOODEEG_Images\0902.jpg	NY	Right	Yes	1.57583000000159	0	571016	235
1116.30859375	1	decision	trialStart	3	129	9	foodImage.55	FOODEEG_Images\0567.jpg	NY	Right	Yes	1.05479770000238	0	571551	251
1117.3671875	2	decision	foodImageDisplay	3	129	9	foodImage.55	FOODEEG_Images\0567.jpg	NY	Right	Yes	1.05479770000238	0	572093	252
1119.431640625	1.05479770000238	decision	choicePhaseStart	3	129	9	foodImage.55	FOODEEG_Images\0567.jpg	NY	Right	Yes	1.05479770000238	0	573150	253
1120.48046875	0	decision	response	3	129	9	foodImage.55	FOODEEG_Images\0567.jpg	NY	Right	Yes	1.05479770000238	0	573687	235
1121.521484375	1	taste	trialStart	3	130	10	foodImage.21	FOODEEG_Images\0234.jpg	YN	Left	Yes	1.31656149999617	0	574220	251
1122.580078125	2	taste	foodImageDisplay	3	130	10	foodImage.21	FOODEEG_Images\0234.jpg	YN	Left	Yes	1.31656149999617	0	574762	252
1124.642578125	1.31656149999617	taste	choicePhaseStart	3	130	10	foodImage.21	FOODEEG_Images\0234.jpg	YN	Left	Yes	1.31656149999617	0	575818	253
1125.951171875	0	taste	response	3	130	10	foodImage.21	FOODEEG_Images\0234.jpg	YN	Left	Yes	1.31656149999617	0	576488	234
1126.994140625	1	decision	trialStart	3	131	11	foodImage.56	FOODEEG_Images\0586.jpg	YN	Left	Yes	2.06969959999697	0	577022	251
1128.037109375	2	decision	foodImageDisplay	3	131	11	foodImage.56	FOODEEG_Images\0586.jpg	YN	Left	Yes	2.06969959999697	0	577556	252
1130.10546875	2.06969959999697	decision	choicePhaseStart	3	131	11	foodImage.56	FOODEEG_Images\0586.jpg	YN	Left	Yes	2.06969959999697	0	578615	253
1132.166015625	0	decision	response	3	131	11	foodImage.56	FOODEEG_Images\0586.jpg	YN	Left	Yes	2.06969959999697	0	579670	234
1133.208984375	1	health	trialStart	3	132	12	foodImage.73	FOODEEG_Images\0717.jpg	YN	Left	Yes	1.88451709999936	0	580204	251
1134.267578125	2	health	foodImageDisplay	3	132	12	foodImage.73	FOODEEG_Images\0717.jpg	YN	Left	Yes	1.88451709999936	0	580746	252
1136.33203125	1.88451709999936	health	choicePhaseStart	3	132	12	foodImage.73	FOODEEG_Images\0717.jpg	YN	Left	Yes	1.88451709999936	0	581803	253
1138.20703125	0	health	response	3	132	12	foodImage.73	FOODEEG_Images\0717.jpg	YN	Left	Yes	1.88451709999936	0	582763	234
1139.25390625	1	taste	trialStart	3	133	13	foodImage.57	FOODEEG_Images\0587.jpg	NY	Right	Yes	1.54294559999835	0	583299	251
1140.296875	2	taste	foodImageDisplay	3	133	13	foodImage.57	FOODEEG_Images\0587.jpg	NY	Right	Yes	1.54294559999835	0	583833	252
1142.361328125	1.54294559999835	taste	choicePhaseStart	3	133	13	foodImage.57	FOODEEG_Images\0587.jpg	NY	Right	Yes	1.54294559999835	0	584890	253
1143.89453125	0	taste	response	3	133	13	foodImage.57	FOODEEG_Images\0587.jpg	NY	Right	Yes	1.54294559999835	0	585675	235
1144.9375	1	decision	trialStart	3	134	14	foodImage.17	FOODEEG_Images\0199.jpg	YN	Left	Yes	0.787394200000563	0	586209	251
1145.978515625	2	decision	foodImageDisplay	3	134	14	foodImage.17	FOODEEG_Images\0199.jpg	YN	Left	Yes	0.787394200000563	0	586742	252
1148.044921875	0.787394200000563	decision	choicePhaseStart	3	134	14	foodImage.17	FOODEEG_Images\0199.jpg	YN	Left	Yes	0.787394200000563	0	587800	253
1148.822265625	0	decision	response	3	134	14	foodImage.17	FOODEEG_Images\0199.jpg	YN	Left	Yes	0.787394200000563	0	588198	234
1149.865234375	1	taste	trialStart	3	135	15	foodImage.26	FOODEEG_Images\0262.jpg	YN	Right	No	0.943940600001952	0	588732	251
1150.908203125	2	taste	foodImageDisplay	3	135	15	foodImage.26	FOODEEG_Images\0262.jpg	YN	Right	No	0.943940600001952	0	589266	252
1152.97265625	0.943940600001952	taste	choicePhaseStart	3	135	15	foodImage.26	FOODEEG_Images\0262.jpg	YN	Right	No	0.943940600001952	0	590323	253
1153.91015625	0	taste	response	3	135	15	foodImage.26	FOODEEG_Images\0262.jpg	YN	Right	No	0.943940600001952	0	590803	235
1154.95703125	1	health	trialStart	3	136	16	foodImage.47	FOODEEG_Images\0488.jpg	YN	Right	No	2.20078529999591	0	591339	251
1155.998046875	2	health	foodImageDisplay	3	136	16	foodImage.47	FOODEEG_Images\0488.jpg	YN	Right	No	2.20078529999591	0	591872	252
1158.0625	2.20078529999591	health	choicePhaseStart	3	136	16	foodImage.47	FOODEEG_Images\0488.jpg	YN	Right	No	2.20078529999591	0	592929	253
1160.25390625	0	health	response	3	136	16	foodImage.47	FOODEEG_Images\0488.jpg	YN	Right	No	2.20078529999591	0	594051	235
1161.294921875	1	health	trialStart	3	137	17	foodImage.82	FOODEEG_Images\0805.jpg	NY	Right	Yes	2.92901069999789	0	594584	251
1162.3515625	2	health	foodImageDisplay	3	137	17	foodImage.82	FOODEEG_Images\0805.jpg	NY	Right	Yes	2.92901069999789	0	595125	252
1164.4140625	2.92901069999789	health	choicePhaseStart	3	137	17	foodImage.82	FOODEEG_Images\0805.jpg	NY	Right	Yes	2.92901069999789	0	596181	253
1167.333984375	0	health	response	3	137	17	foodImage.82	FOODEEG_Images\0805.jpg	NY	Right	Yes	2.92901069999789	0	597676	235
1168.373046875	1	health	trialStart	3	138	18	foodImage.102	FOODEEG_Images\0910.jpg	NY	Left	No	1.42876879999676	0	598208	251
1169.41015625	2	health	foodImageDisplay	3	138	18	foodImage.102	FOODEEG_Images\0910.jpg	NY	Left	No	1.42876879999676	0	598739	252
1171.474609375	1.42876879999676	health	choicePhaseStart	3	138	18	foodImage.102	FOODEEG_Images\0910.jpg	NY	Left	No	1.42876879999676	0	599796	253
1172.89453125	0	health	response	3	138	18	foodImage.102	FOODEEG_Images\0910.jpg	NY	Left	No	1.42876879999676	0	600523	234
1173.9375	1	taste	trialStart	3	139	19	foodImage.78	FOODEEG_Images\0787.jpg	YN	Right	No	1.71639220000361	0	601057	251
1175.001953125	2	taste	foodImageDisplay	3	139	19	foodImage.78	FOODEEG_Images\0787.jpg	YN	Right	No	1.71639220000361	0	601602	252
1177.06640625	1.71639220000361	taste	choicePhaseStart	3	139	19	foodImage.78	FOODEEG_Images\0787.jpg	YN	Right	No	1.71639220000361	0	602659	253
1178.7734375	0	taste	response	3	139	19	foodImage.78	FOODEEG_Images\0787.jpg	YN	Right	No	1.71639220000361	0	603533	235
1179.81640625	1	taste	trialStart	3	140	20	foodImage.42	FOODEEG_Images\0438.jpg	NY	Left	No	1.18133749999834	0	604067	251
1180.904296875	2	taste	foodImageDisplay	3	140	20	foodImage.42	FOODEEG_Images\0438.jpg	NY	Left	No	1.18133749999834	0	604624	252
1182.96875	1.18133749999834	taste	choicePhaseStart	3	140	20	foodImage.42	FOODEEG_Images\0438.jpg	NY	Left	No	1.18133749999834	0	605681	253
1184.140625	0	taste	response	3	140	20	foodImage.42	FOODEEG_Images\0438.jpg	NY	Left	No	1.18133749999834	0	606281	234
1185.18359375	1	health	trialStart	3	141	21	foodImage.11	FOODEEG_Images\0180.jpg	NY	Right	Yes	0.985943400002725	0	606815	251
1186.2265625	2	health	foodImageDisplay	3	141	21	foodImage.11	FOODEEG_Images\0180.jpg	NY	Right	Yes	0.985943400002725	0	607349	252
1188.291015625	0.985943400002725	health	choicePhaseStart	3	141	21	foodImage.11	FOODEEG_Images\0180.jpg	NY	Right	Yes	0.985943400002725	0	608406	253
1189.26953125	0	health	response	3	141	21	foodImage.11	FOODEEG_Images\0180.jpg	NY	Right	Yes	0.985943400002725	0	608907	235
1190.3125	1	decision	trialStart	3	142	22	foodImage.36	FOODEEG_Images\0352.jpg	YN	Left	Yes	0.971361199997773	0	609441	251
1191.37109375	2	decision	foodImageDisplay	3	142	22	foodImage.36	FOODEEG_Images\0352.jpg	YN	Left	Yes	0.971361199997773	0	609983	252
1193.435546875	0.971361199997773	decision	choicePhaseStart	3	142	22	foodImage.36	FOODEEG_Images\0352.jpg	YN	Left	Yes	0.971361199997773	0	611040	253
1194.396484375	0	decision	response	3	142	22	foodImage.36	FOODEEG_Images\0352.jpg	YN	Left	Yes	0.971361199997773	0	611532	234
1195.439453125	1	decision	trialStart	3	143	23	foodImage.33	FOODEEG_Images\0329.jpg	NY	Right	Yes	2.02776799999992	0	612066	251
1196.482421875	2	decision	foodImageDisplay	3	143	23	foodImage.33	FOODEEG_Images\0329.jpg	NY	Right	Yes	2.02776799999992	0	612600	252
1198.544921875	2.02776799999992	decision	choicePhaseStart	3	143	23	foodImage.33	FOODEEG_Images\0329.jpg	NY	Right	Yes	2.02776799999992	0	613656	253
1200.564453125	0	decision	response	3	143	23	foodImage.33	FOODEEG_Images\0329.jpg	NY	Right	Yes	2.02776799999992	0	614690	235
1201.607421875	1	decision	trialStart	3	144	24	foodImage.48	FOODEEG_Images\0494.jpg	NY	Right	Yes	2.346484099995	0	615224	251
1202.650390625	2	decision	foodImageDisplay	3	144	24	foodImage.48	FOODEEG_Images\0494.jpg	NY	Right	Yes	2.346484099995	0	615758	252
1204.71484375	2.346484099995	decision	choicePhaseStart	3	144	24	foodImage.48	FOODEEG_Images\0494.jpg	NY	Right	Yes	2.346484099995	0	616815	253
1207.052734375	0	decision	response	3	144	24	foodImage.48	FOODEEG_Images\0494.jpg	NY	Right	Yes	2.346484099995	0	618012	235
1208.09375	1	taste	trialStart	3	145	25	foodImage.32	FOODEEG_Images\0319.jpg	YN	Right	No	4.22888429999875	0	618545	251
1209.13671875	2	taste	foodImageDisplay	3	145	25	foodImage.32	FOODEEG_Images\0319.jpg	YN	Right	No	4.22888429999875	0	619079	252
1211.201171875	4.22888429999875	taste	choicePhaseStart	3	145	25	foodImage.32	FOODEEG_Images\0319.jpg	YN	Right	No	4.22888429999875	0	620136	253
1215.419921875	0	taste	response	3	145	25	foodImage.32	FOODEEG_Images\0319.jpg	YN	Right	No	4.22888429999875	0	622296	235
1216.4609375	1	health	trialStart	3	146	26	foodImage.7	FOODEEG_Images\0116.jpg	NY	Left	No	1.19851100000233	0	622829	251
1217.501953125	2	health	foodImageDisplay	3	146	26	foodImage.7	FOODEEG_Images\0116.jpg	NY	Left	No	1.19851100000233	0	623362	252
1219.56640625	1.19851100000233	health	choicePhaseStart	3	146	26	foodImage.7	FOODEEG_Images\0116.jpg	NY	Left	No	1.19851100000233	0	624419	253
1220.755859375	0	health	response	3	146	26	foodImage.7	FOODEEG_Images\0116.jpg	NY	Left	No	1.19851100000233	0	625028	234
1221.802734375	1	decision	trialStart	3	147	27	foodImage.110	FOODEEG_Images\0918.jpg	YN	Right	No	1.52890920000209	0	625564	251
1222.841796875	2	decision	foodImageDisplay	3	147	27	foodImage.110	FOODEEG_Images\0918.jpg	YN	Right	No	1.52890920000209	0	626096	252
1224.908203125	1.52890920000209	decision	choicePhaseStart	3	147	27	foodImage.110	FOODEEG_Images\0918.jpg	YN	Right	No	1.52890920000209	0	627154	253
1226.427734375	0	decision	response	3	147	27	foodImage.110	FOODEEG_Images\0918.jpg	YN	Right	No	1.52890920000209	0	627932	235
1227.470703125	1	taste	trialStart	3	148	28	foodImage.16	FOODEEG_Images\0196.jpg	YN	Left	Yes	1.76076299999841	0	628466	251
1228.53125	2	taste	foodImageDisplay	3	148	28	foodImage.16	FOODEEG_Images\0196.jpg	YN	Left	Yes	1.76076299999841	0	629009	252
1230.59375	1.76076299999841	taste	choicePhaseStart	3	148	28	foodImage.16	FOODEEG_Images\0196.jpg	YN	Left	Yes	1.76076299999841	0	630065	253
1232.34765625	0	taste	response	3	148	28	foodImage.16	FOODEEG_Images\0196.jpg	YN	Left	Yes	1.76076299999841	0	630963	234
1233.388671875	1	taste	trialStart	3	149	29	foodImage.44	FOODEEG_Images\0459.jpg	YN	Left	Yes	2.61801940000441	0	631496	251
1234.43359375	2	taste	foodImageDisplay	3	149	29	foodImage.44	FOODEEG_Images\0459.jpg	YN	Left	Yes	2.61801940000441	0	632031	252
1236.498046875	2.61801940000441	taste	choicePhaseStart	3	149	29	foodImage.44	FOODEEG_Images\0459.jpg	YN	Left	Yes	2.61801940000441	0	633088	253
1239.107421875	0	taste	response	3	149	29	foodImage.44	FOODEEG_Images\0459.jpg	YN	Left	Yes	2.61801940000441	0	634424	234
1240.154296875	1	health	trialStart	3	150	30	foodImage.96	FOODEEG_Images\0904.jpg	YN	Right	No	1.8665148	0	634960	251
1241.193359375	2	health	foodImageDisplay	3	150	30	foodImage.96	FOODEEG_Images\0904.jpg	YN	Right	No	1.8665148	0	635492	252
1243.263671875	1.8665148	health	choicePhaseStart	3	150	30	foodImage.96	FOODEEG_Images\0904.jpg	YN	Right	No	1.8665148	0	636552	253
1245.123046875	0	health	response	3	150	30	foodImage.96	FOODEEG_Images\0904.jpg	YN	Right	No	1.8665148	0	637504	235
1246.1640625	1	taste	trialStart	3	151	31	foodImage.30	FOODEEG_Images\0282.jpg	YN	Left	Yes	1.11687530000199	0	638037	251
1247.20703125	2	taste	foodImageDisplay	3	151	31	foodImage.30	FOODEEG_Images\0282.jpg	YN	Left	Yes	1.11687530000199	0	638571	252
1249.26953125	1.11687530000199	taste	choicePhaseStart	3	151	31	foodImage.30	FOODEEG_Images\0282.jpg	YN	Left	Yes	1.11687530000199	0	639627	253
1250.37890625	0	taste	response	3	151	31	foodImage.30	FOODEEG_Images\0282.jpg	YN	Left	Yes	1.11687530000199	0	640195	234
1251.421875	1	taste	trialStart	3	152	32	foodImage.114	FOODEEG_Images\0922.jpg	YN	Right	No	0.975171500002034	0	640729	251
1252.4609375	2	taste	foodImageDisplay	3	152	32	foodImage.114	FOODEEG_Images\0922.jpg	YN	Right	No	0.975171500002034	0	641261	252
1254.525390625	0.975171500002034	taste	choicePhaseStart	3	152	32	foodImage.114	FOODEEG_Images\0922.jpg	YN	Right	No	0.975171500002034	0	642318	253
1255.490234375	0	taste	response	3	152	32	foodImage.114	FOODEEG_Images\0922.jpg	YN	Right	No	0.975171500002034	0	642812	235
1256.533203125	1	decision	trialStart	3	153	33	foodImage.117	FOODEEG_Images\0925.jpg	YN	Left	Yes	1.91274810000323	0	643346	251
1257.572265625	2	decision	foodImageDisplay	3	153	33	foodImage.117	FOODEEG_Images\0925.jpg	YN	Left	Yes	1.91274810000323	0	643878	252
1259.642578125	1.91274810000323	decision	choicePhaseStart	3	153	33	foodImage.117	FOODEEG_Images\0925.jpg	YN	Left	Yes	1.91274810000323	0	644938	253
1261.546875	0	decision	response	3	153	33	foodImage.117	FOODEEG_Images\0925.jpg	YN	Left	Yes	1.91274810000323	0	645913	234
1262.587890625	1	taste	trialStart	3	154	34	foodImage.19	FOODEEG_Images\0225.jpg	NY	Left	No	0.97887069999706	0	646446	251
1263.6328125	2	taste	foodImageDisplay	3	154	34	foodImage.19	FOODEEG_Images\0225.jpg	NY	Left	No	0.97887069999706	0	646981	252
1265.6953125	0.97887069999706	taste	choicePhaseStart	3	154	34	foodImage.19	FOODEEG_Images\0225.jpg	NY	Left	No	0.97887069999706	0	648037	253
1266.666015625	0	taste	response	3	154	34	foodImage.19	FOODEEG_Images\0225.jpg	NY	Left	No	0.97887069999706	0	648534	234
1267.708984375	1	health	trialStart	3	155	35	foodImage.56	FOODEEG_Images\0586.jpg	NY	Left	No	2.75588150000112	0	649068	251
1268.751953125	2	health	foodImageDisplay	3	155	35	foodImage.56	FOODEEG_Images\0586.jpg	NY	Left	No	2.75588150000112	0	649602	252
1270.81640625	2.75588150000112	health	choicePhaseStart	3	155	35	foodImage.56	FOODEEG_Images\0586.jpg	NY	Left	No	2.75588150000112	0	650659	253
1273.5625	0	health	response	3	155	35	foodImage.56	FOODEEG_Images\0586.jpg	NY	Left	No	2.75588150000112	0	652065	234
1274.60546875	1	decision	trialStart	3	156	36	foodImage.103	FOODEEG_Images\0911.jpg	NY	Left	No	0.878675300002214	0	652599	251
1275.642578125	2	decision	foodImageDisplay	3	156	36	foodImage.103	FOODEEG_Images\0911.jpg	NY	Left	No	0.878675300002214	0	653130	252
1277.708984375	0.878675300002214	decision	choicePhaseStart	3	156	36	foodImage.103	FOODEEG_Images\0911.jpg	NY	Left	No	0.878675300002214	0	654188	253
1278.578125	0	decision	response	3	156	36	foodImage.103	FOODEEG_Images\0911.jpg	NY	Left	No	0.878675300002214	0	654633	234
1279.62109375	1	decision	trialStart	3	157	37	foodImage.52	FOODEEG_Images\0539.jpg	YN	Left	Yes	0.954337700000906	0	655167	251
1280.681640625	2	decision	foodImageDisplay	3	157	37	foodImage.52	FOODEEG_Images\0539.jpg	YN	Left	Yes	0.954337700000906	0	655710	252
1282.744140625	0.954337700000906	decision	choicePhaseStart	3	157	37	foodImage.52	FOODEEG_Images\0539.jpg	YN	Left	Yes	0.954337700000906	0	656766	253
1283.689453125	0	decision	response	3	157	37	foodImage.52	FOODEEG_Images\0539.jpg	YN	Left	Yes	0.954337700000906	0	657250	234
1284.732421875	1	health	trialStart	3	158	38	foodImage.62	FOODEEG_Images\0644.jpg	YN	Left	Yes	1.26463099999819	0	657784	251
1285.791015625	2	health	foodImageDisplay	3	158	38	foodImage.62	FOODEEG_Images\0644.jpg	YN	Left	Yes	1.26463099999819	0	658326	252
1287.85546875	1.26463099999819	health	choicePhaseStart	3	158	38	foodImage.62	FOODEEG_Images\0644.jpg	YN	Left	Yes	1.26463099999819	0	659383	253
1289.11328125	0	health	response	3	158	38	foodImage.62	FOODEEG_Images\0644.jpg	YN	Left	Yes	1.26463099999819	0	660027	234
1290.15625	1	health	trialStart	3	159	39	foodImage.44	FOODEEG_Images\0459.jpg	YN	Left	Yes	1.39087540000037	0	660561	251
1291.203125	2	health	foodImageDisplay	3	159	39	foodImage.44	FOODEEG_Images\0459.jpg	YN	Left	Yes	1.39087540000037	0	661097	252
1293.267578125	1.39087540000037	health	choicePhaseStart	3	159	39	foodImage.44	FOODEEG_Images\0459.jpg	YN	Left	Yes	1.39087540000037	0	662154	253
1294.6484375	0	health	response	3	159	39	foodImage.44	FOODEEG_Images\0459.jpg	YN	Left	Yes	1.39087540000037	0	662861	234
1295.69140625	1	health	trialStart	3	160	40	foodImage.9	FOODEEG_Images\0138.jpg	NY	Left	No	0.897945400000026	0	663395	251
1296.751953125	2	health	foodImageDisplay	3	160	40	foodImage.9	FOODEEG_Images\0138.jpg	NY	Left	No	0.897945400000026	0	663938	252
1298.81640625	0.897945400000026	health	choicePhaseStart	3	160	40	foodImage.9	FOODEEG_Images\0138.jpg	NY	Left	No	0.897945400000026	0	664995	253
1299.705078125	0	health	response	3	160	40	foodImage.9	FOODEEG_Images\0138.jpg	NY	Left	No	0.897945400000026	0	665450	234
1300.748046875	1	taste	trialStart	3	161	41	foodImage.108	FOODEEG_Images\0916.jpg	NY	Left	No	0.951011299999664	0	665984	251
1301.787109375	2	taste	foodImageDisplay	3	161	41	foodImage.108	FOODEEG_Images\0916.jpg	NY	Left	No	0.951011299999664	0	666516	252
1303.849609375	0.951011299999664	taste	choicePhaseStart	3	161	41	foodImage.108	FOODEEG_Images\0916.jpg	NY	Left	No	0.951011299999664	0	667572	253
1304.79296875	0	taste	response	3	161	41	foodImage.108	FOODEEG_Images\0916.jpg	NY	Left	No	0.951011299999664	0	668055	234
1305.8359375	1	health	trialStart	3	162	42	foodImage.99	FOODEEG_Images\0907.jpg	NY	Left	No	0.912133199999516	0	668589	251
1306.873046875	2	health	foodImageDisplay	3	162	42	foodImage.99	FOODEEG_Images\0907.jpg	NY	Left	No	0.912133199999516	0	669120	252
1308.9375	0.912133199999516	health	choicePhaseStart	3	162	42	foodImage.99	FOODEEG_Images\0907.jpg	NY	Left	No	0.912133199999516	0	670177	253
1309.83984375	0	health	response	3	162	42	foodImage.99	FOODEEG_Images\0907.jpg	NY	Left	No	0.912133199999516	0	670639	234
1310.888671875	1	taste	trialStart	3	163	43	foodImage.6	FOODEEG_Images\0113.jpg	NY	Right	Yes	0.830104599997867	0	671176	251
1311.931640625	2	taste	foodImageDisplay	3	163	43	foodImage.6	FOODEEG_Images\0113.jpg	NY	Right	Yes	0.830104599997867	0	671710	252
1313.994140625	0.830104599997867	taste	choicePhaseStart	3	163	43	foodImage.6	FOODEEG_Images\0113.jpg	NY	Right	Yes	0.830104599997867	0	672766	253
1314.81640625	0	taste	response	3	163	43	foodImage.6	FOODEEG_Images\0113.jpg	NY	Right	Yes	0.830104599997867	0	673187	235
1315.86328125	1	health	trialStart	3	164	44	foodImage.1	FOODEEG_Images\0004.jpg	YN	Right	No	2.2403897999975	0	673723	251
1316.90625	2	health	foodImageDisplay	3	164	44	foodImage.1	FOODEEG_Images\0004.jpg	YN	Right	No	2.2403897999975	0	674257	252
1318.96875	2.2403897999975	health	choicePhaseStart	3	164	44	foodImage.1	FOODEEG_Images\0004.jpg	YN	Right	No	2.2403897999975	0	675313	253
1321.19921875	0	health	response	3	164	44	foodImage.1	FOODEEG_Images\0004.jpg	YN	Right	No	2.2403897999975	0	676455	235
1322.2421875	1	taste	trialStart	3	165	45	foodImage.120	FOODEEG_Images\0928.jpg	NY	Left	No	0.622979800005851	0	676989	251
1323.28125	2	taste	foodImageDisplay	3	165	45	foodImage.120	FOODEEG_Images\0928.jpg	NY	Left	No	0.622979800005851	0	677521	252
1325.345703125	0.622979800005851	taste	choicePhaseStart	3	165	45	foodImage.120	FOODEEG_Images\0928.jpg	NY	Left	No	0.622979800005851	0	678578	253
1325.958984375	0	taste	response	3	165	45	foodImage.120	FOODEEG_Images\0928.jpg	NY	Left	No	0.622979800005851	0	678892	234
1327.001953125	1	health	trialStart	3	166	46	foodImage.12	FOODEEG_Images\0181.jpg	NY	Right	Yes	1.20345870000165	0	679426	251
1328.04296875	2	health	foodImageDisplay	3	166	46	foodImage.12	FOODEEG_Images\0181.jpg	NY	Right	Yes	1.20345870000165	0	679959	252
1330.109375	1.20345870000165	health	choicePhaseStart	3	166	46	foodImage.12	FOODEEG_Images\0181.jpg	NY	Right	Yes	1.20345870000165	0	681017	253
1331.302734375	0	health	response	3	166	46	foodImage.12	FOODEEG_Images\0181.jpg	NY	Right	Yes	1.20345870000165	0	681628	235
1332.345703125	1	taste	trialStart	3	167	47	foodImage.76	FOODEEG_Images\0766.jpg	YN	Left	Yes	2.86402829999861	0	682162	251
1333.392578125	2	taste	foodImageDisplay	3	167	47	foodImage.76	FOODEEG_Images\0766.jpg	YN	Left	Yes	2.86402829999861	0	682698	252
1335.455078125	2.86402829999861	taste	choicePhaseStart	3	167	47	foodImage.76	FOODEEG_Images\0766.jpg	YN	Left	Yes	2.86402829999861	0	683754	253
1338.310546875	0	taste	response	3	167	47	foodImage.76	FOODEEG_Images\0766.jpg	YN	Left	Yes	2.86402829999861	0	685216	234
1339.3515625	1	health	trialStart	3	168	48	foodImage.55	FOODEEG_Images\0567.jpg	NY	Right	Yes	1.09375140000338	0	685749	251
1340.41015625	2	health	foodImageDisplay	3	168	48	foodImage.55	FOODEEG_Images\0567.jpg	NY	Right	Yes	1.09375140000338	0	686291	252
1342.474609375	1.09375140000338	health	choicePhaseStart	3	168	48	foodImage.55	FOODEEG_Images\0567.jpg	NY	Right	Yes	1.09375140000338	0	687348	253
1343.55859375	0	health	response	3	168	48	foodImage.55	FOODEEG_Images\0567.jpg	NY	Right	Yes	1.09375140000338	0	687903	235
1344.60546875	1	health	trialStart	3	169	49	foodImage.91	FOODEEG_Images\0896.jpg	NY	Left	No	1.78366230000393	0	688439	251
1345.6640625	2	health	foodImageDisplay	3	169	49	foodImage.91	FOODEEG_Images\0896.jpg	NY	Left	No	1.78366230000393	0	688981	252
1347.728515625	1.78366230000393	health	choicePhaseStart	3	169	49	foodImage.91	FOODEEG_Images\0896.jpg	NY	Left	No	1.78366230000393	0	690038	253
1349.501953125	0	health	response	3	169	49	foodImage.91	FOODEEG_Images\0896.jpg	NY	Left	No	1.78366230000393	0	690946	234
1350.544921875	1	taste	trialStart	3	170	50	foodImage.102	FOODEEG_Images\0910.jpg	YN	Right	No	1.1217059000046	0	691480	251
1351.5859375	2	taste	foodImageDisplay	3	170	50	foodImage.102	FOODEEG_Images\0910.jpg	YN	Right	No	1.1217059000046	0	692013	252
1353.65234375	1.1217059000046	taste	choicePhaseStart	3	170	50	foodImage.102	FOODEEG_Images\0910.jpg	YN	Right	No	1.1217059000046	0	693071	253
1354.765625	0	taste	response	3	170	50	foodImage.102	FOODEEG_Images\0910.jpg	YN	Right	No	1.1217059000046	0	693641	235
1355.814453125	1	taste	trialStart	3	171	51	foodImage.100	FOODEEG_Images\0908.jpg	NY	Right	Yes	1.37631669999973	0	694178	251
1356.8515625	2	taste	foodImageDisplay	3	171	51	foodImage.100	FOODEEG_Images\0908.jpg	NY	Right	Yes	1.37631669999973	0	694709	252
1358.916015625	1.37631669999973	taste	choicePhaseStart	3	171	51	foodImage.100	FOODEEG_Images\0908.jpg	NY	Right	Yes	1.37631669999973	0	695766	253
1360.28515625	0	taste	response	3	171	51	foodImage.100	FOODEEG_Images\0908.jpg	NY	Right	Yes	1.37631669999973	0	696467	235
1361.328125	1	taste	trialStart	3	172	52	foodImage.45	FOODEEG_Images\0478.jpg	YN	Left	Yes	1.01088289999461	0	697001	251
1362.375	2	taste	foodImageDisplay	3	172	52	foodImage.45	FOODEEG_Images\0478.jpg	YN	Left	Yes	1.01088289999461	0	697537	252
1364.443359375	1.01088289999461	taste	choicePhaseStart	3	172	52	foodImage.45	FOODEEG_Images\0478.jpg	YN	Left	Yes	1.01088289999461	0	698596	253
1365.4453125	0	taste	response	3	172	52	foodImage.45	FOODEEG_Images\0478.jpg	YN	Left	Yes	1.01088289999461	0	699109	234
1366.48828125	1	decision	trialStart	3	173	53	foodImage.19	FOODEEG_Images\0225.jpg	NY	Left	No	1.06405030000315	0	699643	251
1367.533203125	2	decision	foodImageDisplay	3	173	53	foodImage.19	FOODEEG_Images\0225.jpg	NY	Left	No	1.06405030000315	0	700178	252
1369.599609375	1.06405030000315	decision	choicePhaseStart	3	173	53	foodImage.19	FOODEEG_Images\0225.jpg	NY	Left	No	1.06405030000315	0	701236	253
1370.654296875	0	decision	response	3	173	53	foodImage.19	FOODEEG_Images\0225.jpg	NY	Left	No	1.06405030000315	0	701776	234
1371.697265625	1	health	trialStart	3	174	54	foodImage.84	FOODEEG_Images\0830.jpg	NY	Right	Yes	2.22688280000148	0	702310	251
1372.755859375	2	health	foodImageDisplay	3	174	54	foodImage.84	FOODEEG_Images\0830.jpg	NY	Right	Yes	2.22688280000148	0	702852	252
1374.8203125	2.22688280000148	health	choicePhaseStart	3	174	54	foodImage.84	FOODEEG_Images\0830.jpg	NY	Right	Yes	2.22688280000148	0	703909	253
1377.037109375	0	health	response	3	174	54	foodImage.84	FOODEEG_Images\0830.jpg	NY	Right	Yes	2.22688280000148	0	705044	235
1378.080078125	1	decision	trialStart	3	175	55	foodImage.118	FOODEEG_Images\0926.jpg	NY	Left	No	0.672041700003319	0	705578	251
1379.119140625	2	decision	foodImageDisplay	3	175	55	foodImage.118	FOODEEG_Images\0926.jpg	NY	Left	No	0.672041700003319	0	706110	252
1381.181640625	0.672041700003319	decision	choicePhaseStart	3	175	55	foodImage.118	FOODEEG_Images\0926.jpg	NY	Left	No	0.672041700003319	0	707166	253
1381.845703125	0	decision	response	3	175	55	foodImage.118	FOODEEG_Images\0926.jpg	NY	Left	No	0.672041700003319	0	707506	234
1382.890625	1	decision	trialStart	3	176	56	foodImage.59	FOODEEG_Images\0607.jpg	YN	Right	No	1.05983230000129	0	708041	251
1383.939453125	2	decision	foodImageDisplay	3	176	56	foodImage.59	FOODEEG_Images\0607.jpg	YN	Right	No	1.05983230000129	0	708578	252
1386.001953125	1.05983230000129	decision	choicePhaseStart	3	176	56	foodImage.59	FOODEEG_Images\0607.jpg	YN	Right	No	1.05983230000129	0	709634	253
1387.052734375	0	decision	response	3	176	56	foodImage.59	FOODEEG_Images\0607.jpg	YN	Right	No	1.05983230000129	0	710172	235
1388.09765625	1	taste	trialStart	3	177	57	foodImage.84	FOODEEG_Images\0830.jpg	NY	Right	Yes	1.19194499999867	0	710707	251
1389.181640625	2	taste	foodImageDisplay	3	177	57	foodImage.84	FOODEEG_Images\0830.jpg	NY	Right	Yes	1.19194499999867	0	711262	252
1391.24609375	1.19194499999867	taste	choicePhaseStart	3	177	57	foodImage.84	FOODEEG_Images\0830.jpg	NY	Right	Yes	1.19194499999867	0	712319	253
1392.427734375	0	taste	response	3	177	57	foodImage.84	FOODEEG_Images\0830.jpg	NY	Right	Yes	1.19194499999867	0	712924	235
1393.470703125	1	taste	trialStart	3	178	58	foodImage.70	FOODEEG_Images\0705.jpg	YN	Left	Yes	0.963053999999829	0	713458	251
1394.53125	2	taste	foodImageDisplay	3	178	58	foodImage.70	FOODEEG_Images\0705.jpg	YN	Left	Yes	0.963053999999829	0	714001	252
1396.59375	0.963053999999829	taste	choicePhaseStart	3	178	58	foodImage.70	FOODEEG_Images\0705.jpg	YN	Left	Yes	0.963053999999829	0	715057	253
1397.548828125	0	taste	response	3	178	58	foodImage.70	FOODEEG_Images\0705.jpg	YN	Left	Yes	0.963053999999829	0	715546	234
1398.591796875	1	taste	trialStart	3	179	59	foodImage.97	FOODEEG_Images\0905.jpg	YN	Right	No	0.980900499998825	0	716080	251
1399.630859375	2	taste	foodImageDisplay	3	179	59	foodImage.97	FOODEEG_Images\0905.jpg	YN	Right	No	0.980900499998825	0	716612	252
1401.6953125	0.980900499998825	taste	choicePhaseStart	3	179	59	foodImage.97	FOODEEG_Images\0905.jpg	YN	Right	No	0.980900499998825	0	717669	253
1402.66796875	0	taste	response	3	179	59	foodImage.97	FOODEEG_Images\0905.jpg	YN	Right	No	0.980900499998825	0	718167	235
1403.712890625	1	decision	trialStart	3	180	60	foodImage.101	FOODEEG_Images\0909.jpg	YN	Right	No	0.733622799998557	0	718702	251
1404.751953125	2	decision	foodImageDisplay	3	180	60	foodImage.101	FOODEEG_Images\0909.jpg	YN	Right	No	0.733622799998557	0	719234	252
1406.81640625	0.733622799998557	decision	choicePhaseStart	3	180	60	foodImage.101	FOODEEG_Images\0909.jpg	YN	Right	No	0.733622799998557	0	720291	253
1407.5390625	0	decision	response	3	180	60	foodImage.101	FOODEEG_Images\0909.jpg	YN	Right	No	0.733622799998557	0	720661	235
1409.583984375	75.70703125	n/a	blockEnd	n/a	n/a	n/a	n/a	n/a	n/a	n/a	n/a	n/a	n/a	721708	254
1485.291015625	2	n/a	blockStart	4	n/a	n/a	n/a	n/a	n/a	n/a	n/a	n/a	n/a	760470	250
1487.32421875	1	health	trialStart	4	181	1	foodImage.20	FOODEEG_Images\0226.jpg	YN	Right	No	2.86003509999864	0	761511	251
1488.3671875	2	health	foodImageDisplay	4	181	1	foodImage.20	FOODEEG_Images\0226.jpg	YN	Right	No	2.86003509999864	0	762045	252
1490.431640625	2.86003509999864	health	choicePhaseStart	4	181	1	foodImage.20	FOODEEG_Images\0226.jpg	YN	Right	No	2.86003509999864	0	763102	253
1493.28125	0	health	response	4	181	1	foodImage.20	FOODEEG_Images\0226.jpg	YN	Right	No	2.86003509999864	0	764561	235
1494.32421875	1	taste	trialStart	4	182	2	foodImage.118	FOODEEG_Images\0926.jpg	YN	Right	No	0.99081109999679	0	765095	251
1495.36328125	2	taste	foodImageDisplay	4	182	2	foodImage.118	FOODEEG_Images\0926.jpg	YN	Right	No	0.99081109999679	0	765627	252
1497.42578125	0.99081109999679	taste	choicePhaseStart	4	182	2	foodImage.118	FOODEEG_Images\0926.jpg	YN	Right	No	0.99081109999679	0	766683	253
1498.408203125	0	taste	response	4	182	2	foodImage.118	FOODEEG_Images\0926.jpg	YN	Right	No	0.99081109999679	0	767186	235
1499.451171875	1	taste	trialStart	4	183	3	foodImage.104	FOODEEG_Images\0912.jpg	NY	Right	Yes	1.08720390000235	0	767720	251
1500.4921875	2	taste	foodImageDisplay	4	183	3	foodImage.104	FOODEEG_Images\0912.jpg	NY	Right	Yes	1.08720390000235	0	768253	252
1502.5546875	1.08720390000235	taste	choicePhaseStart	4	183	3	foodImage.104	FOODEEG_Images\0912.jpg	NY	Right	Yes	1.08720390000235	0	769309	253
1503.6328125	0	taste	response	4	183	3	foodImage.104	FOODEEG_Images\0912.jpg	NY	Right	Yes	1.08720390000235	0	769861	235
1504.67578125	1	health	trialStart	4	184	4	foodImage.119	FOODEEG_Images\0927.jpg	NY	Left	No	1.98195580000174	0	770395	251
1505.732421875	2	health	foodImageDisplay	4	184	4	foodImage.119	FOODEEG_Images\0927.jpg	NY	Left	No	1.98195580000174	0	770936	252
1507.794921875	1.98195580000174	health	choicePhaseStart	4	184	4	foodImage.119	FOODEEG_Images\0927.jpg	NY	Left	No	1.98195580000174	0	771992	253
1509.767578125	0	health	response	4	184	4	foodImage.119	FOODEEG_Images\0927.jpg	NY	Left	No	1.98195580000174	0	773002	234
1510.810546875	1	decision	trialStart	4	185	5	foodImage.106	FOODEEG_Images\0914.jpg	NY	Right	Yes	1.13469369999802	0	773536	251
1511.849609375	2	decision	foodImageDisplay	4	185	5	foodImage.106	FOODEEG_Images\0914.jpg	NY	Right	Yes	1.13469369999802	0	774068	252
1513.9140625	1.13469369999802	decision	choicePhaseStart	4	185	5	foodImage.106	FOODEEG_Images\0914.jpg	NY	Right	Yes	1.13469369999802	0	775125	253
1515.0390625	0	decision	response	4	185	5	foodImage.106	FOODEEG_Images\0914.jpg	NY	Right	Yes	1.13469369999802	0	775701	235
1516.0859375	1	decision	trialStart	4	186	6	foodImage.108	FOODEEG_Images\0916.jpg	YN	Right	No	1.99511490000441	0	776237	251
1517.125	2	decision	foodImageDisplay	4	186	6	foodImage.108	FOODEEG_Images\0916.jpg	YN	Right	No	1.99511490000441	0	776769	252
1519.189453125	1.99511490000441	decision	choicePhaseStart	4	186	6	foodImage.108	FOODEEG_Images\0916.jpg	YN	Right	No	1.99511490000441	0	777826	253
1521.17578125	0	decision	response	4	186	6	foodImage.108	FOODEEG_Images\0916.jpg	YN	Right	No	1.99511490000441	0	778843	235
1522.21875	1	decision	trialStart	4	187	7	foodImage.77	FOODEEG_Images\0771.jpg	NY	Right	Yes	0.975943099998403	0	779377	251
1523.263671875	2	decision	foodImageDisplay	4	187	7	foodImage.77	FOODEEG_Images\0771.jpg	NY	Right	Yes	0.975943099998403	0	779912	252
1525.328125	0.975943099998403	decision	choicePhaseStart	4	187	7	foodImage.77	FOODEEG_Images\0771.jpg	NY	Right	Yes	0.975943099998403	0	780969	253
1526.294921875	0	decision	response	4	187	7	foodImage.77	FOODEEG_Images\0771.jpg	NY	Right	Yes	0.975943099998403	0	781464	235
1527.33984375	1	health	trialStart	4	188	8	foodImage.78	FOODEEG_Images\0787.jpg	YN	Left	Yes	1.33708330000081	0	781999	251
1528.384765625	2	health	foodImageDisplay	4	188	8	foodImage.78	FOODEEG_Images\0787.jpg	YN	Left	Yes	1.33708330000081	0	782534	252
1530.447265625	1.33708330000081	health	choicePhaseStart	4	188	8	foodImage.78	FOODEEG_Images\0787.jpg	YN	Left	Yes	1.33708330000081	0	783590	253
1531.775390625	0	health	response	4	188	8	foodImage.78	FOODEEG_Images\0787.jpg	YN	Left	Yes	1.33708330000081	0	784270	234
1532.814453125	1	decision	trialStart	4	189	9	foodImage.99	FOODEEG_Images\0907.jpg	YN	Right	No	1.82249120000051	0	784802	251
1533.8515625	2	decision	foodImageDisplay	4	189	9	foodImage.99	FOODEEG_Images\0907.jpg	YN	Right	No	1.82249120000051	0	785333	252
1535.9140625	1.82249120000051	decision	choicePhaseStart	4	189	9	foodImage.99	FOODEEG_Images\0907.jpg	YN	Right	No	1.82249120000051	0	786389	253
1537.7265625	0	decision	response	4	189	9	foodImage.99	FOODEEG_Images\0907.jpg	YN	Right	No	1.82249120000051	0	787317	235
1538.767578125	1	health	trialStart	4	190	10	foodImage.120	FOODEEG_Images\0928.jpg	NY	Left	No	1.25847369999974	0	787850	251
1539.806640625	2	health	foodImageDisplay	4	190	10	foodImage.120	FOODEEG_Images\0928.jpg	NY	Left	No	1.25847369999974	0	788382	252
1541.869140625	1.25847369999974	health	choicePhaseStart	4	190	10	foodImage.120	FOODEEG_Images\0928.jpg	NY	Left	No	1.25847369999974	0	789438	253
1543.119140625	0	health	response	4	190	10	foodImage.120	FOODEEG_Images\0928.jpg	NY	Left	No	1.25847369999974	0	790078	234
1544.16015625	1	taste	trialStart	4	191	11	foodImage.91	FOODEEG_Images\0896.jpg	NY	Right	Yes	1.04534160000185	0	790611	251
1545.21875	2	taste	foodImageDisplay	4	191	11	foodImage.91	FOODEEG_Images\0896.jpg	NY	Right	Yes	1.04534160000185	0	791153	252
1547.283203125	1.04534160000185	taste	choicePhaseStart	4	191	11	foodImage.91	FOODEEG_Images\0896.jpg	NY	Right	Yes	1.04534160000185	0	792210	253
1548.318359375	0	taste	response	4	191	11	foodImage.91	FOODEEG_Images\0896.jpg	NY	Right	Yes	1.04534160000185	0	792740	235
1549.361328125	1	taste	trialStart	4	192	12	foodImage.59	FOODEEG_Images\0607.jpg	YN	Right	No	1.32759510000324	0	793274	251
1550.431640625	2	taste	foodImageDisplay	4	192	12	foodImage.59	FOODEEG_Images\0607.jpg	YN	Right	No	1.32759510000324	0	793822	252
1552.49609375	1.32759510000324	taste	choicePhaseStart	4	192	12	foodImage.59	FOODEEG_Images\0607.jpg	YN	Right	No	1.32759510000324	0	794879	253
1553.814453125	0	taste	response	4	192	12	foodImage.59	FOODEEG_Images\0607.jpg	YN	Right	No	1.32759510000324	0	795554	235
1554.857421875	1	decision	trialStart	4	193	13	foodImage.50	FOODEEG_Images\0529.jpg	NY	Right	Yes	1.52370510000037	0	796088	251
1555.916015625	2	decision	foodImageDisplay	4	193	13	foodImage.50	FOODEEG_Images\0529.jpg	NY	Right	Yes	1.52370510000037	0	796630	252
1557.98046875	1.52370510000037	decision	choicePhaseStart	4	193	13	foodImage.50	FOODEEG_Images\0529.jpg	NY	Right	Yes	1.52370510000037	0	797687	253
1559.494140625	0	decision	response	4	193	13	foodImage.50	FOODEEG_Images\0529.jpg	NY	Right	Yes	1.52370510000037	0	798462	235
1560.537109375	1	health	trialStart	4	194	14	foodImage.88	FOODEEG_Images\0878.jpg	YN	Right	No	1.84623089999513	0	798996	251
1561.59375	2	health	foodImageDisplay	4	194	14	foodImage.88	FOODEEG_Images\0878.jpg	YN	Right	No	1.84623089999513	0	799537	252
1563.65625	1.84623089999513	health	choicePhaseStart	4	194	14	foodImage.88	FOODEEG_Images\0878.jpg	YN	Right	No	1.84623089999513	0	800593	253
1565.494140625	0	health	response	4	194	14	foodImage.88	FOODEEG_Images\0878.jpg	YN	Right	No	1.84623089999513	0	801534	235
1566.53515625	1	decision	trialStart	4	195	15	foodImage.68	FOODEEG_Images\0685.jpg	NY	Right	Yes	0.912997699997504	0	802067	251
