onset	duration	trial_type	event_type	block	trial_total	trial_in_block	food_image_code	food_image_path	button_position	resp_position	resp_choice	choice_rt	resp_too_slow	sample	trigger
189.93359375	2	n/a	blockStart	1	n/a	n/a	n/a	n/a	n/a	n/a	n/a	n/a	n/a	97247	250
191.970703125	1	taste	trialStart	1	1	1	foodImage.5	FOODEEG_Images\0107.jpg	NY	Right	Yes	1.1292949000017	0	98290	251
193.033203125	2	taste	foodImageDisplay	1	1	1	foodImage.5	FOODEEG_Images\0107.jpg	NY	Right	Yes	1.1292949000017	0	98834	252
195.09765625	1.1292949000017	taste	choicePhaseStart	1	1	1	foodImage.5	FOODEEG_Images\0107.jpg	NY	Right	Yes	1.1292949000017	0	99891	253
196.22265625	0	taste	response	1	1	1	foodImage.5	FOODEEG_Images\0107.jpg	NY	Right	Yes	1.1292949000017	0	100467	235
197.330078125	1	taste	trialStart	1	2	2	foodImage.116	FOODEEG_Images\0924.jpg	YN	Left	Yes	2.88038819999929	0	101034	251
198.375	2	taste	foodImageDisplay	1	2	2	foodImage.116	FOODEEG_Images\0924.jpg	YN	Left	Yes	2.88038819999929	0	101569	252
200.443359375	2.88038819999929	taste	choicePhaseStart	1	2	2	foodImage.116	FOODEEG_Images\0924.jpg	YN	Left	Yes	2.88038819999929	0	102628	253
203.3203125	0	taste	response	1	2	2	foodImage.116	FOODEEG_Images\0924.jpg	YN	Left	Yes	2.88038819999929	0	104101	234
204.37109375	1	taste	trialStart	1	3	3	foodImage.77	FOODEEG_Images\0771.jpg	NY	Right	Yes	0.816407399997843	0	104639	251
205.423828125	2	taste	foodImageDisplay	1	3	3	foodImage.77	FOODEEG_Images\0771.jpg	NY	Right	Yes	0.816407399997843	0	105178	252
207.486328125	0.816407399997843	taste	choicePhaseStart	1	3	3	foodImage.77	FOODEEG_Images\0771.jpg	NY	Right	Yes	0.816407399997843	0	106234	253
208.294921875	0	taste	response	1	3	3	foodImage.77	FOODEEG_Images\0771.jpg	NY	Right	Yes	0.816407399997843	0	106648	235
209.3359375	1	taste	trialStart	1	4	4	foodImage.93	FOODEEG_Images\0901.jpg	NY	Left	No	1.07186580000052	0	107181	251
210.375	2	taste	foodImageDisplay	1	4	4	foodImage.93	FOODEEG_Images\0901.jpg	NY	Left	No	1.07186580000052	0	107713	252
212.439453125	1.07186580000052	taste	choicePhaseStart	1	4	4	foodImage.93	FOODEEG_Images\0901.jpg	NY	Left	No	1.07186580000052	0	108770	253
213.501953125	0	taste	response	1	4	4	foodImage.93	FOODEEG_Images\0901.jpg	NY	Left	No	1.07186580000052	0	109314	234
214.548828125	1	health	trialStart	1	5	5	foodImage.63	FOODEEG_Images\0645.jpg	YN	Right	No	0.742781900000409	0	109850	251
215.61328125	2	health	foodImageDisplay	1	5	5	foodImage.63	FOODEEG_Images\0645.jpg	YN	Right	No	0.742781900000409	0	110395	252
217.6796875	0.742781900000409	health	choicePhaseStart	1	5	5	foodImage.63	FOODEEG_Images\0645.jpg	YN	Right	No	0.742781900000409	0	111453	253
218.4140625	0	health	response	1	5	5	foodImage.63	FOODEEG_Images\0645.jpg	YN	Right	No	0.742781900000409	0	111829	235
219.462890625	1	decision	trialStart	1	6	6	foodImage.39	FOODEEG_Images\0367.jpg	NY	Left	No	1.14993970000069	0	112366	251
220.521484375	2	decision	foodImageDisplay	1	6	6	foodImage.39	FOODEEG_Images\0367.jpg	NY	Left	No	1.14993970000069	0	112908	252
222.5859375	1.14993970000069	decision	choicePhaseStart	1	6	6	foodImage.39	FOODEEG_Images\0367.jpg	NY	Left	No	1.14993970000069	0	113965	253
223.7265625	0	decision	response	1	6	6	foodImage.39	FOODEEG_Images\0367.jpg	NY	Left	No	1.14993970000069	0	114549	234
224.76953125	1	health	trialStart	1	7	7	foodImage.75	FOODEEG_Images\0763.jpg	NY	Right	Yes	0.563305600000604	0	115083	251
225.814453125	2	health	foodImageDisplay	1	7	7	foodImage.75	FOODEEG_Images\0763.jpg	NY	Right	Yes	0.563305600000604	0	115618	252
227.880859375	0.563305600000604	health	choicePhaseStart	1	7	7	foodImage.75	FOODEEG_Images\0763.jpg	NY	Right	Yes	0.563305600000604	0	116676	253
228.4375	0	health	response	1	7	7	foodImage.75	FOODEEG_Images\0763.jpg	NY	Right	Yes	0.563305600000604	0	116961	235
229.482421875	1	decision	trialStart	1	8	8	foodImage.79	FOODEEG_Images\0794.jpg	YN	Left	Yes	0.726597100001527	0	117496	251
230.52734375	2	decision	foodImageDisplay	1	8	8	foodImage.79	FOODEEG_Images\0794.jpg	YN	Left	Yes	0.726597100001527	0	118031	252
232.591796875	0.726597100001527	decision	choicePhaseStart	1	8	8	foodImage.79	FOODEEG_Images\0794.jpg	YN	Left	Yes	0.726597100001527	0	119088	253
233.310546875	0	decision	response	1	8	8	foodImage.79	FOODEEG_Images\0794.jpg	YN	Left	Yes	0.726597100001527	0	119456	234
234.35546875	1	taste	trialStart	1	9	9	foodImage.65	FOODEEG_Images\0658.jpg	NY	Left	No	1.06163749999905	0	119991	251
235.416015625	2	taste	foodImageDisplay	1	9	9	foodImage.65	FOODEEG_Images\0658.jpg	NY	Left	No	1.06163749999905	0	120534	252
237.482421875	1.06163749999905	taste	choicePhaseStart	1	9	9	foodImage.65	FOODEEG_Images\0658.jpg	NY	Left	No	1.06163749999905	0	121592	253
238.53515625	0	taste	response	1	9	9	foodImage.65	FOODEEG_Images\0658.jpg	NY	Left	No	1.06163749999905	0	122131	234
239.576171875	1	health	trialStart	1	10	10	foodImage.98	FOODEEG_Images\0906.jpg	YN	Left	Yes	0.766388000000006	0	122664	251
240.6328125	2	health	foodImageDisplay	1	10	10	foodImage.98	FOODEEG_Images\0906.jpg	YN	Left	Yes	0.766388000000006	0	123205	252
242.6953125	0.766388000000006	health	choicePhaseStart	1	10	10	foodImage.98	FOODEEG_Images\0906.jpg	YN	Left	Yes	0.766388000000006	0	124261	253
243.453125	0	health	response	1	10	10	foodImage.98	FOODEEG_Images\0906.jpg	YN	Left	Yes	0.766388000000006	0	124649	234
244.5	1	decision	trialStart	1	11	11	foodImage.37	FOODEEG_Images\0359.jpg	YN	Left	Yes	0.866227900001832	0	125185	251
245.544921875	2	decision	foodImageDisplay	1	11	11	foodImage.37	FOODEEG_Images\0359.jpg	YN	Left	Yes	0.866227900001832	0	125720	252
247.611328125	0.866227900001832	decision	choicePhaseStart	1	11	11	foodImage.37	FOODEEG_Images\0359.jpg	YN	Left	Yes	0.866227900001832	0	126778	253
248.46875	0	decision	response	1	11	11	foodImage.37	FOODEEG_Images\0359.jpg	YN	Left	Yes	0.866227900001832	0	127217	234
249.509765625	1	health	trialStart	1	12	12	foodImage.33	FOODEEG_Images\0329.jpg	YN	Left	Yes	0.629015000002255	0	127750	251
250.5625	2	health	foodImageDisplay	1	12	12	foodImage.33	FOODEEG_Images\0329.jpg	YN	Left	Yes	0.629015000002255	0	128289	252
252.625	0.629015000002255	health	choicePhaseStart	1	12	12	foodImage.33	FOODEEG_Images\0329.jpg	YN	Left	Yes	0.629015000002255	0	129345	253
253.24609375	0	health	response	1	12	12	foodImage.33	FOODEEG_Images\0329.jpg	YN	Left	Yes	0.629015000002255	0	129663	234
254.28515625	1	decision	trialStart	1	13	13	foodImage.28	FOODEEG_Images\0273.jpg	NY	Right	Yes	0.612500299997919	0	130195	251
255.326171875	2	decision	foodImageDisplay	1	13	13	foodImage.28	FOODEEG_Images\0273.jpg	NY	Right	Yes	0.612500299997919	0	130728	252
257.40234375	0.612500299997919	decision	choicePhaseStart	1	13	13	foodImage.28	FOODEEG_Images\0273.jpg	NY	Right	Yes	0.612500299997919	0	131791	253
258.005859375	0	decision	response	1	13	13	foodImage.28	FOODEEG_Images\0273.jpg	NY	Right	Yes	0.612500299997919	0	132100	235
259.048828125	1	taste	trialStart	1	14	14	foodImage.71	FOODEEG_Images\0713.jpg	NY	Right	Yes	0.746443799998815	0	132634	251
260.091796875	2	taste	foodImageDisplay	1	14	14	foodImage.71	FOODEEG_Images\0713.jpg	NY	Right	Yes	0.746443799998815	0	133168	252
262.15625	0.746443799998815	taste	choicePhaseStart	1	14	14	foodImage.71	FOODEEG_Images\0713.jpg	NY	Right	Yes	0.746443799998815	0	134225	253
262.892578125	0	taste	response	1	14	14	foodImage.71	FOODEEG_Images\0713.jpg	NY	Right	Yes	0.746443799998815	0	134602	235
263.939453125	1	health	trialStart	1	15	15	foodImage.61	FOODEEG_Images\0640.jpg	YN	Left	Yes	0.632127300003049	0	135138	251
264.994140625	2	health	foodImageDisplay	1	15	15	foodImage.61	FOODEEG_Images\0640.jpg	YN	Left	Yes	0.632127300003049	0	135678	252
267.05859375	0.632127300003049	health	choicePhaseStart	1	15	15	foodImage.61	FOODEEG_Images\0640.jpg	YN	Left	Yes	0.632127300003049	0	136735	253
267.685546875	0	health	response	1	15	15	foodImage.61	FOODEEG_Images\0640.jpg	YN	Left	Yes	0.632127300003049	0	137056	234
268.7265625	1	decision	trialStart	1	16	16	foodImage.111	FOODEEG_Images\0919.jpg	YN	Right	No	0.607177100002446	0	137589	251
269.765625	2	decision	foodImageDisplay	1	16	16	foodImage.111	FOODEEG_Images\0919.jpg	YN	Right	No	0.607177100002446	0	138121	252
271.830078125	0.607177100002446	decision	choicePhaseStart	1	16	16	foodImage.111	FOODEEG_Images\0919.jpg	YN	Right	No	0.607177100002446	0	139178	253
272.4296875	0	decision	response	1	16	16	foodImage.111	FOODEEG_Images\0919.jpg	YN	Right	No	0.607177100002446	0	139485	235
273.470703125	1	decision	trialStart	1	17	17	foodImage.77	FOODEEG_Images\0771.jpg	NY	Right	Yes	0.786209999998391	0	140018	251
274.521484375	2	decision	foodImageDisplay	1	17	17	foodImage.77	FOODEEG_Images\0771.jpg	NY	Right	Yes	0.786209999998391	0	140556	252
276.587890625	0.786209999998391	decision	choicePhaseStart	1	17	17	foodImage.77	FOODEEG_Images\0771.jpg	NY	Right	Yes	0.786209999998391	0	141614	253
277.365234375	0	decision	response	1	17	17	foodImage.77	FOODEEG_Images\0771.jpg	NY	Right	Yes	0.786209999998391	0	142012	235
278.404296875	1	taste	trialStart	1	18	18	foodImage.60	FOODEEG_Images\0614.jpg	NY	Left	No	2.55846160000146	0	142544	251
279.462890625	2	taste	foodImageDisplay	1	18	18	foodImage.60	FOODEEG_Images\0614.jpg	NY	Left	No	2.55846160000146	0	143086	252
281.52734375	2.55846160000146	taste	choicePhaseStart	1	18	18	foodImage.60	FOODEEG_Images\0614.jpg	NY	Left	No	2.55846160000146	0	144143	253
284.076171875	0	taste	response	1	18	18	foodImage.60	FOODEEG_Images\0614.jpg	NY	Left	No	2.55846160000146	0	145448	234
285.1171875	1	taste	trialStart	1	19	19	foodImage.20	FOODEEG_Images\0226.jpg	YN	Right	No	0.758526800000254	0	145981	251
286.158203125	2	taste	foodImageDisplay	1	19	19	foodImage.20	FOODEEG_Images\0226.jpg	YN	Right	No	0.758526800000254	0	146514	252
288.22265625	0.758526800000254	taste	choicePhaseStart	1	19	19	foodImage.20	FOODEEG_Images\0226.jpg	YN	Right	No	0.758526800000254	0	147571	253
288.97265625	0	taste	response	1	19	19	foodImage.20	FOODEEG_Images\0226.jpg	YN	Right	No	0.758526800000254	0	147955	235
290.015625	1	taste	trialStart	1	20	20	foodImage.14	FOODEEG_Images\0188.jpg	YN	Left	Yes	0.618372300003102	0	148489	251
291.099609375	2	taste	foodImageDisplay	1	20	20	foodImage.14	FOODEEG_Images\0188.jpg	YN	Left	Yes	0.618372300003102	0	149044	252
293.162109375	0.618372300003102	taste	choicePhaseStart	1	20	20	foodImage.14	FOODEEG_Images\0188.jpg	YN	Left	Yes	0.618372300003102	0	150100	253
293.771484375	0	taste	response	1	20	20	foodImage.14	FOODEEG_Images\0188.jpg	YN	Left	Yes	0.618372300003102	0	150412	234
294.814453125	1	health	trialStart	1	21	21	foodImage.97	FOODEEG_Images\0905.jpg	NY	Left	No	1.36137539999982	0	150946	251
295.859375	2	health	foodImageDisplay	1	21	21	foodImage.97	FOODEEG_Images\0905.jpg	NY	Left	No	1.36137539999982	0	151481	252
297.923828125	1.36137539999982	health	choicePhaseStart	1	21	21	foodImage.97	FOODEEG_Images\0905.jpg	NY	Left	No	1.36137539999982	0	152538	253
299.275390625	0	health	response	1	21	21	foodImage.97	FOODEEG_Images\0905.jpg	NY	Left	No	1.36137539999982	0	153230	234
300.322265625	1	taste	trialStart	1	22	22	foodImage.108	FOODEEG_Images\0916.jpg	NY	Left	No	0.876897699999972	0	153766	251
301.361328125	2	taste	foodImageDisplay	1	22	22	foodImage.108	FOODEEG_Images\0916.jpg	NY	Left	No	0.876897699999972	0	154298	252
303.423828125	0.876897699999972	taste	choicePhaseStart	1	22	22	foodImage.108	FOODEEG_Images\0916.jpg	NY	Left	No	0.876897699999972	0	155354	253
304.291015625	0	taste	response	1	22	22	foodImage.108	FOODEEG_Images\0916.jpg	NY	Left	No	0.876897699999972	0	155798	234
305.333984375	1	taste	trialStart	1	23	23	foodImage.18	FOODEEG_Images\0202.jpg	NY	Right	Yes	0.640272799999366	0	156332	251
306.40234375	2	taste	foodImageDisplay	1	23	23	foodImage.18	FOODEEG_Images\0202.jpg	NY	Right	Yes	0.640272799999366	0	156879	252
308.46875	0.640272799999366	taste	choicePhaseStart	1	23	23	foodImage.18	FOODEEG_Images\0202.jpg	NY	Right	Yes	0.640272799999366	0	157937	253
309.099609375	0	taste	response	1	23	23	foodImage.18	FOODEEG_Images\0202.jpg	NY	Right	Yes	0.640272799999366	0	158260	235
310.142578125	1	taste	trialStart	1	24	24	foodImage.90	FOODEEG_Images\0890.jpg	YN	Right	No	1.85229460000119	0	158794	251
311.21484375	2	taste	foodImageDisplay	1	24	24	foodImage.90	FOODEEG_Images\0890.jpg	YN	Right	No	1.85229460000119	0	159343	252
313.279296875	1.85229460000119	taste	choicePhaseStart	1	24	24	foodImage.90	FOODEEG_Images\0890.jpg	YN	Right	No	1.85229460000119	0	160400	253
315.123046875	0	taste	response	1	24	24	foodImage.90	FOODEEG_Images\0890.jpg	YN	Right	No	1.85229460000119	0	161344	235
316.1640625	1	taste	trialStart	1	25	25	foodImage.9	FOODEEG_Images\0138.jpg	NY	Right	Yes	3.1096507000002	0	161877	251
317.21875	2	taste	foodImageDisplay	1	25	25	foodImage.9	FOODEEG_Images\0138.jpg	NY	Right	Yes	3.1096507000002	0	162417	252
319.287109375	3.1096507000002	taste	choicePhaseStart	1	25	25	foodImage.9	FOODEEG_Images\0138.jpg	NY	Right	Yes	3.1096507000002	0	163476	253
322.38671875	0	taste	response	1	25	25	foodImage.9	FOODEEG_Images\0138.jpg	NY	Right	Yes	3.1096507000002	0	165063	235
323.42578125	1	decision	trialStart	1	26	26	foodImage.113	FOODEEG_Images\0921.jpg	NY	Right	Yes	3.99559050000244	0	165595	251
324.46484375	2	decision	foodImageDisplay	1	26	26	foodImage.113	FOODEEG_Images\0921.jpg	NY	Right	Yes	3.99559050000244	0	166127	252
326.529296875	3.99559050000244	decision	choicePhaseStart	1	26	26	foodImage.113	FOODEEG_Images\0921.jpg	NY	Right	Yes	3.99559050000244	0	167184	253
330.515625	0	decision	response	1	26	26	foodImage.113	FOODEEG_Images\0921.jpg	NY	Right	Yes	3.99559050000244	0	169225	235
331.556640625	1	decision	trialStart	1	27	27	foodImage.62	FOODEEG_Images\0644.jpg	NY	Right	Yes	1.22809559999951	0	169758	251
332.63671875	2	decision	foodImageDisplay	1	27	27	foodImage.62	FOODEEG_Images\0644.jpg	NY	Right	Yes	1.22809559999951	0	170311	252
334.701171875	1.22809559999951	decision	choicePhaseStart	1	27	27	foodImage.62	FOODEEG_Images\0644.jpg	NY	Right	Yes	1.22809559999951	0	171368	253
335.921875	0	decision	response	1	27	27	foodImage.62	FOODEEG_Images\0644.jpg	NY	Right	Yes	1.22809559999951	0	171993	235
336.966796875	1	taste	trialStart	1	28	28	foodImage.86	FOODEEG_Images\0844.jpg	YN	Left	Yes	0.743710099999589	0	172528	251
338.05078125	2	taste	foodImageDisplay	1	28	28	foodImage.86	FOODEEG_Images\0844.jpg	YN	Left	Yes	0.743710099999589	0	173083	252
340.1171875	0.743710099999589	taste	choicePhaseStart	1	28	28	foodImage.86	FOODEEG_Images\0844.jpg	YN	Left	Yes	0.743710099999589	0	174141	253
340.849609375	0	taste	response	1	28	28	foodImage.86	FOODEEG_Images\0844.jpg	YN	Left	Yes	0.743710099999589	0	174516	234
341.892578125	1	taste	trialStart	1	29	29	foodImage.12	FOODEEG_Images\0181.jpg	YN	Left	Yes	0.832254800003284	0	175050	251
342.95703125	2	taste	foodImageDisplay	1	29	29	foodImage.12	FOODEEG_Images\0181.jpg	YN	Left	Yes	0.832254800003284	0	175595	252
345.01953125	0.832254800003284	taste	choicePhaseStart	1	29	29	foodImage.12	FOODEEG_Images\0181.jpg	YN	Left	Yes	0.832254800003284	0	176651	253
345.841796875	0	taste	response	1	29	29	foodImage.12	FOODEEG_Images\0181.jpg	YN	Left	Yes	0.832254800003284	0	177072	234
346.884765625	1	decision	trialStart	1	30	30	foodImage.15	FOODEEG_Images\0189.jpg	NY	Left	No	1.00912890000109	0	177606	251
347.970703125	2	decision	foodImageDisplay	1	30	30	foodImage.15	FOODEEG_Images\0189.jpg	NY	Left	No	1.00912890000109	0	178162	252
350.03515625	1.00912890000109	decision	choicePhaseStart	1	30	30	foodImage.15	FOODEEG_Images\0189.jpg	NY	Left	No	1.00912890000109	0	179219	253
351.033203125	0	decision	response	1	30	30	foodImage.15	FOODEEG_Images\0189.jpg	NY	Left	No	1.00912890000109	0	179730	234
352.07421875	1	taste	trialStart	1	31	31	foodImage.52	FOODEEG_Images\0539.jpg	YN	Left	Yes	0.559186899998167	0	180263	251
353.15625	2	taste	foodImageDisplay	1	31	31	foodImage.52	FOODEEG_Images\0539.jpg	YN	Left	Yes	0.559186899998167	0	180817	252
355.21875	0.559186899998167	taste	choicePhaseStart	1	31	31	foodImage.52	FOODEEG_Images\0539.jpg	YN	Left	Yes	0.559186899998167	0	181873	253
355.76953125	0	taste	response	1	31	31	foodImage.52	FOODEEG_Images\0539.jpg	YN	Left	Yes	0.559186899998167	0	182155	234
356.810546875	1	decision	trialStart	1	32	32	foodImage.54	FOODEEG_Images\0560.jpg	NY	Right	Yes	0.556802999999491	0	182688	251
357.89453125	2	decision	foodImageDisplay	1	32	32	foodImage.54	FOODEEG_Images\0560.jpg	NY	Right	Yes	0.556802999999491	0	183243	252
359.958984375	0.556802999999491	decision	choicePhaseStart	1	32	32	foodImage.54	FOODEEG_Images\0560.jpg	NY	Right	Yes	0.556802999999491	0	184300	253
360.505859375	0	decision	response	1	32	32	foodImage.54	FOODEEG_Images\0560.jpg	NY	Right	Yes	0.556802999999491	0	184580	235
361.546875	1	taste	trialStart	1	33	33	foodImage.94	FOODEEG_Images\0902.jpg	YN	Right	No	0.889580099999876	0	185113	251
362.5859375	2	taste	foodImageDisplay	1	33	33	foodImage.94	FOODEEG_Images\0902.jpg	YN	Right	No	0.889580099999876	0	185645	252
364.650390625	0.889580099999876	taste	choicePhaseStart	1	33	33	foodImage.94	FOODEEG_Images\0902.jpg	YN	Right	No	0.889580099999876	0	186702	253
365.529296875	0	taste	response	1	33	33	foodImage.94	FOODEEG_Images\0902.jpg	YN	Right	No	0.889580099999876	0	187152	235
366.572265625	1	health	trialStart	1	34	34	foodImage.36	FOODEEG_Images\0352.jpg	YN	Right	No	1.17643010000029	0	187686	251
367.638671875	2	health	foodImageDisplay	1	34	34	foodImage.36	FOODEEG_Images\0352.jpg	YN	Right	No	1.17643010000029	0	188232	252
369.703125	1.17643010000029	health	choicePhaseStart	1	34	34	foodImage.36	FOODEEG_Images\0352.jpg	YN	Right	No	1.17643010000029	0	189289	253
370.873046875	0	health	response	1	34	34	foodImage.36	FOODEEG_Images\0352.jpg	YN	Right	No	1.17643010000029	0	189888	235
371.91796875	1	taste	trialStart	1	35	35	foodImage.120	FOODEEG_Images\0928.jpg	NY	Left	No	0.685783000000811	0	190423	251
372.95703125	2	taste	foodImageDisplay	1	35	35	foodImage.120	FOODEEG_Images\0928.jpg	NY	Left	No	0.685783000000811	0	190955	252
375.01953125	0.685783000000811	taste	choicePhaseStart	1	35	35	foodImage.120	FOODEEG_Images\0928.jpg	NY	Left	No	0.685783000000811	0	192011	253
375.697265625	0	taste	response	1	35	35	foodImage.120	FOODEEG_Images\0928.jpg	NY	Left	No	0.685783000000811	0	192358	234
376.740234375	1	taste	trialStart	1	36	36	foodImage.31	FOODEEG_Images\0294.jpg	NY	Left	No	0.776637799997843	0	192892	251
377.78515625	2	taste	foodImageDisplay	1	36	36	foodImage.31	FOODEEG_Images\0294.jpg	NY	Left	No	0.776637799997843	0	193427	252
379.849609375	0.776637799997843	taste	choicePhaseStart	1	36	36	foodImage.31	FOODEEG_Images\0294.jpg	NY	Left	No	0.776637799997843	0	194484	253
380.6171875	0	taste	response	1	36	36	foodImage.31	FOODEEG_Images\0294.jpg	NY	Left	No	0.776637799997843	0	194877	234
381.66015625	1	decision	trialStart	1	37	37	foodImage.60	FOODEEG_Images\0614.jpg	YN	Right	No	1.36527749999732	0	195411	251
382.7421875	2	decision	foodImageDisplay	1	37	37	foodImage.60	FOODEEG_Images\0614.jpg	YN	Right	No	1.36527749999732	0	195965	252
384.8046875	1.36527749999732	decision	choicePhaseStart	1	37	37	foodImage.60	FOODEEG_Images\0614.jpg	YN	Right	No	1.36527749999732	0	197021	253
386.162109375	0	decision	response	1	37	37	foodImage.60	FOODEEG_Images\0614.jpg	YN	Right	No	1.36527749999732	0	197716	235
387.203125	1	health	trialStart	1	38	38	foodImage.48	FOODEEG_Images\0494.jpg	NY	Left	No	0.699010600001202	0	198249	251
388.263671875	2	health	foodImageDisplay	1	38	38	foodImage.48	FOODEEG_Images\0494.jpg	NY	Left	No	0.699010600001202	0	198792	252
390.328125	0.699010600001202	health	choicePhaseStart	1	38	38	foodImage.48	FOODEEG_Images\0494.jpg	NY	Left	No	0.699010600001202	0	199849	253
391.017578125	0	health	response	1	38	38	foodImage.48	FOODEEG_Images\0494.jpg	NY	Left	No	0.699010600001202	0	200202	234
392.05859375	1	decision	trialStart	1	39	39	foodImage.27	FOODEEG_Images\0263.jpg	NY	Right	Yes	0.567214800001238	0	200735	251
393.099609375	2	decision	foodImageDisplay	1	39	39	foodImage.27	FOODEEG_Images\0263.jpg	NY	Right	Yes	0.567214800001238	0	201268	252
395.162109375	0.567214800001238	decision	choicePhaseStart	1	39	39	foodImage.27	FOODEEG_Images\0263.jpg	NY	Right	Yes	0.567214800001238	0	202324	253
395.720703125	0	decision	response	1	39	39	foodImage.27	FOODEEG_Images\0263.jpg	NY	Right	Yes	0.567214800001238	0	202610	235
396.76171875	1	taste	trialStart	1	40	40	foodImage.113	FOODEEG_Images\0921.jpg	NY	Right	Yes	1.40517420000106	0	203143	251
397.814453125	2	taste	foodImageDisplay	1	40	40	foodImage.113	FOODEEG_Images\0921.jpg	NY	Right	Yes	1.40517420000106	0	203682	252
399.876953125	1.40517420000106	taste	choicePhaseStart	1	40	40	foodImage.113	FOODEEG_Images\0921.jpg	NY	Right	Yes	1.40517420000106	0	204738	253
401.2734375	0	taste	response	1	40	40	foodImage.113	FOODEEG_Images\0921.jpg	NY	Right	Yes	1.40517420000106	0	205453	235
402.314453125	1	taste	trialStart	1	41	41	foodImage.16	FOODEEG_Images\0196.jpg	YN	Left	Yes	0.739851300000737	0	205986	251
403.3984375	2	taste	foodImageDisplay	1	41	41	foodImage.16	FOODEEG_Images\0196.jpg	YN	Left	Yes	0.739851300000737	0	206541	252
405.462890625	0.739851300000737	taste	choicePhaseStart	1	41	41	foodImage.16	FOODEEG_Images\0196.jpg	YN	Left	Yes	0.739851300000737	0	207598	253
406.193359375	0	taste	response	1	41	41	foodImage.16	FOODEEG_Images\0196.jpg	YN	Left	Yes	0.739851300000737	0	207972	234
407.234375	1	decision	trialStart	1	42	42	foodImage.95	FOODEEG_Images\0903.jpg	NY	Left	No	0.584315200001583	0	208505	251
408.2890625	2	decision	foodImageDisplay	1	42	42	foodImage.95	FOODEEG_Images\0903.jpg	NY	Left	No	0.584315200001583	0	209045	252
410.353515625	0.584315200001583	decision	choicePhaseStart	1	42	42	foodImage.95	FOODEEG_Images\0903.jpg	NY	Left	No	0.584315200001583	0	210102	253
410.927734375	0	decision	response	1	42	42	foodImage.95	FOODEEG_Images\0903.jpg	NY	Left	No	0.584315200001583	0	210396	234
411.970703125	1	decision	trialStart	1	43	43	foodImage.40	FOODEEG_Images\0373.jpg	YN	Left	Yes	0.744571900002484	0	210930	251
413.03125	2	decision	foodImageDisplay	1	43	43	foodImage.40	FOODEEG_Images\0373.jpg	YN	Left	Yes	0.744571900002484	0	211473	252
415.09765625	0.744571900002484	decision	choicePhaseStart	1	43	43	foodImage.40	FOODEEG_Images\0373.jpg	YN	Left	Yes	0.744571900002484	0	212531	253
415.83203125	0	decision	response	1	43	43	foodImage.40	FOODEEG_Images\0373.jpg	YN	Left	Yes	0.744571900002484	0	212907	234
416.87890625	1	health	trialStart	1	44	44	foodImage.13	FOODEEG_Images\0183.jpg	NY	Right	Yes	1.0407086999985	0	213443	251
417.923828125	2	health	foodImageDisplay	1	44	44	foodImage.13	FOODEEG_Images\0183.jpg	NY	Right	Yes	1.0407086999985	0	213978	252
419.9921875	1.0407086999985	health	choicePhaseStart	1	44	44	foodImage.13	FOODEEG_Images\0183.jpg	NY	Right	Yes	1.0407086999985	0	215037	253
421.0234375	0	health	response	1	44	44	foodImage.13	FOODEEG_Images\0183.jpg	NY	Right	Yes	1.0407086999985	0	215565	235
422.068359375	1	decision	trialStart	1	45	45	foodImage.100	FOODEEG_Images\0908.jpg	YN	Right	No	0.949869700001727	0	216100	251
423.125	2	decision	foodImageDisplay	1	45	45	foodImage.100	FOODEEG_Images\0908.jpg	YN	Right	No	0.949869700001727	0	216641	252
425.1875	0.949869700001727	decision	choicePhaseStart	1	45	45	foodImage.100	FOODEEG_Images\0908.jpg	YN	Right	No	0.949869700001727	0	217697	253
426.12890625	0	decision	response	1	45	45	foodImage.100	FOODEEG_Images\0908.jpg	YN	Right	No	0.949869700001727	0	218179	235
427.169921875	1	taste	trialStart	1	46	46	foodImage.72	FOODEEG_Images\0714.jpg	YN	Right	No	2.21557039999971	0	218712	251
428.2265625	2	taste	foodImageDisplay	1	46	46	foodImage.72	FOODEEG_Images\0714.jpg	YN	Right	No	2.21557039999971	0	219253	252
430.2890625	2.21557039999971	taste	choicePhaseStart	1	46	46	foodImage.72	FOODEEG_Images\0714.jpg	YN	Right	No	2.21557039999971	0	220309	253
432.49609375	0	taste	response	1	46	46	foodImage.72	FOODEEG_Images\0714.jpg	YN	Right	No	2.21557039999971	0	221439	235
433.53515625	1	taste	trialStart	1	47	47	foodImage.56	FOODEEG_Images\0586.jpg	YN	Left	Yes	0.617129499998555	0	221971	251
434.599609375	2	taste	foodImageDisplay	1	47	47	foodImage.56	FOODEEG_Images\0586.jpg	YN	Left	Yes	0.617129499998555	0	222516	252
436.6640625	0.617129499998555	taste	choicePhaseStart	1	47	47	foodImage.56	FOODEEG_Images\0586.jpg	YN	Left	Yes	0.617129499998555	0	223573	253
437.271484375	0	taste	response	1	47	47	foodImage.56	FOODEEG_Images\0586.jpg	YN	Left	Yes	0.617129499998555	0	223884	234
438.3125	1	decision	trialStart	1	48	48	foodImage.67	FOODEEG_Images\0679.jpg	YN	Left	Yes	0.67393230000016	0	224417	251
439.390625	2	decision	foodImageDisplay	1	48	48	foodImage.67	FOODEEG_Images\0679.jpg	YN	Left	Yes	0.67393230000016	0	224969	252
441.455078125	0.67393230000016	decision	choicePhaseStart	1	48	48	foodImage.67	FOODEEG_Images\0679.jpg	YN	Left	Yes	0.67393230000016	0	226026	253
442.119140625	0	decision	response	1	48	48	foodImage.67	FOODEEG_Images\0679.jpg	YN	Left	Yes	0.67393230000016	0	226366	234
443.162109375	1	decision	trialStart	1	49	49	foodImage.41	FOODEEG_Images\0409.jpg	NY	Right	Yes	1.93235350000032	0	226900	251
444.216796875	2	decision	foodImageDisplay	1	49	49	foodImage.41	FOODEEG_Images\0409.jpg	NY	Right	Yes	1.93235350000032	0	227440	252
446.28515625	1.93235350000032	decision	choicePhaseStart	1	49	49	foodImage.41	FOODEEG_Images\0409.jpg	NY	Right	Yes	1.93235350000032	0	228499	253
448.20703125	0	decision	response	1	49	49	foodImage.41	FOODEEG_Images\0409.jpg	NY	Right	Yes	1.93235350000032	0	229483	235
449.25	1	health	trialStart	1	50	50	foodImage.40	FOODEEG_Images\0373.jpg	YN	Right	No	2.72230219999983	0	230017	251
450.310546875	2	health	foodImageDisplay	1	50	50	foodImage.40	FOODEEG_Images\0373.jpg	YN	Right	No	2.72230219999983	0	230560	252
452.375	2.72230219999983	health	choicePhaseStart	1	50	50	foodImage.40	FOODEEG_Images\0373.jpg	YN	Right	No	2.72230219999983	0	231617	253
455.0859375	0	health	response	1	50	50	foodImage.40	FOODEEG_Images\0373.jpg	YN	Right	No	2.72230219999983	0	233005	235
456.126953125	1	taste	trialStart	1	51	51	foodImage.99	FOODEEG_Images\0907.jpg	NY	Left	No	0.877437999999529	0	233538	251
457.1796875	2	taste	foodImageDisplay	1	51	51	foodImage.99	FOODEEG_Images\0907.jpg	NY	Left	No	0.877437999999529	0	234077	252
459.2421875	0.877437999999529	taste	choicePhaseStart	1	51	51	foodImage.99	FOODEEG_Images\0907.jpg	NY	Left	No	0.877437999999529	0	235133	253
460.111328125	0	taste	response	1	51	51	foodImage.99	FOODEEG_Images\0907.jpg	NY	Left	No	0.877437999999529	0	235578	234
461.15234375	1	health	trialStart	1	52	52	foodImage.101	FOODEEG_Images\0909.jpg	YN	Left	Yes	3.72808499999883	0	236111	251
462.19140625	2	health	foodImageDisplay	1	52	52	foodImage.101	FOODEEG_Images\0909.jpg	YN	Left	Yes	3.72808499999883	0	236643	252
464.255859375	3.72808499999883	health	choicePhaseStart	1	52	52	foodImage.101	FOODEEG_Images\0909.jpg	YN	Left	Yes	3.72808499999883	0	237700	253
467.974609375	0	health	response	1	52	52	foodImage.101	FOODEEG_Images\0909.jpg	YN	Left	Yes	3.72808499999883	0	239604	234
469.015625	1	health	trialStart	1	53	53	foodImage.68	FOODEEG_Images\0685.jpg	YN	Left	Yes	6.67675650000092	1	240137	251
470.115234375	2	health	foodImageDisplay	1	53	53	foodImage.68	FOODEEG_Images\0685.jpg	YN	Left	Yes	6.67675650000092	1	240700	252
472.177734375	6.67675650000092	health	choicePhaseStart	1	53	53	foodImage.68	FOODEEG_Images\0685.jpg	YN	Left	Yes	6.67675650000092	1	241756	253
478.845703125	0	health	response	1	53	53	foodImage.68	FOODEEG_Images\0685.jpg	YN	Left	Yes	6.67675650000092	1	245170	234
479.888671875	1	decision	trialStart	1	54	54	foodImage.66	FOODEEG_Images\0676.jpg	YN	Right	No	1.88367830000061	0	245704	251
480.931640625	2	decision	foodImageDisplay	1	54	54	foodImage.66	FOODEEG_Images\0676.jpg	YN	Right	No	1.88367830000061	0	246238	252
482.99609375	1.88367830000061	decision	choicePhaseStart	1	54	54	foodImage.66	FOODEEG_Images\0676.jpg	YN	Right	No	1.88367830000061	0	247295	253
484.869140625	0	decision	response	1	54	54	foodImage.66	FOODEEG_Images\0676.jpg	YN	Right	No	1.88367830000061	0	248254	235
485.912109375	1	decision	trialStart	1	55	55	foodImage.84	FOODEEG_Images\0830.jpg	YN	Left	Yes	0.48504580000008	0	248788	251
486.994140625	2	decision	foodImageDisplay	1	55	55	foodImage.84	FOODEEG_Images\0830.jpg	YN	Left	Yes	0.48504580000008	0	249342	252
489.056640625	0.48504580000008	decision	choicePhaseStart	1	55	55	foodImage.84	FOODEEG_Images\0830.jpg	YN	Left	Yes	0.48504580000008	0	250398	253
489.533203125	0	decision	response	1	55	55	foodImage.84	FOODEEG_Images\0830.jpg	YN	Left	Yes	0.48504580000008	0	250642	234
490.576171875	1	health	trialStart	1	56	56	foodImage.5	FOODEEG_Images\0107.jpg	NY	Left	No	0.812072600001557	0	251176	251
491.634765625	2	health	foodImageDisplay	1	56	56	foodImage.5	FOODEEG_Images\0107.jpg	NY	Left	No	0.812072600001557	0	251718	252
493.69921875	0.812072600001557	health	choicePhaseStart	1	56	56	foodImage.5	FOODEEG_Images\0107.jpg	NY	Left	No	0.812072600001557	0	252775	253
494.501953125	0	health	response	1	56	56	foodImage.5	FOODEEG_Images\0107.jpg	NY	Left	No	0.812072600001557	0	253186	234
495.544921875	1	health	trialStart	1	57	57	foodImage.49	FOODEEG_Images\0515.jpg	YN	Right	No	1.53574120000121	0	253720	251
496.591796875	2	health	foodImageDisplay	1	57	57	foodImage.49	FOODEEG_Images\0515.jpg	YN	Right	No	1.53574120000121	0	254256	252
498.65625	1.53574120000121	health	choicePhaseStart	1	57	57	foodImage.49	FOODEEG_Images\0515.jpg	YN	Right	No	1.53574120000121	0	255313	253
500.181640625	0	health	response	1	57	57	foodImage.49	FOODEEG_Images\0515.jpg	YN	Right	No	1.53574120000121	0	256094	235
501.224609375	1	taste	trialStart	1	58	58	foodImage.102	FOODEEG_Images\0910.jpg	NY	Left	No	0.758963500000391	0	256628	251
502.28125	2	taste	foodImageDisplay	1	58	58	foodImage.102	FOODEEG_Images\0910.jpg	NY	Left	No	0.758963500000391	0	257169	252
504.349609375	0.758963500000391	taste	choicePhaseStart	1	58	58	foodImage.102	FOODEEG_Images\0910.jpg	NY	Left	No	0.758963500000391	0	258228	253
505.1015625	0	taste	response	1	58	58	foodImage.102	FOODEEG_Images\0910.jpg	NY	Left	No	0.758963500000391	0	258613	234
506.142578125	1	health	trialStart	1	59	59	foodImage.87	FOODEEG_Images\0873.jpg	YN	Left	Yes	0.526901200002612	0	259146	251
507.216796875	2	health	foodImageDisplay	1	59	59	foodImage.87	FOODEEG_Images\0873.jpg	YN	Left	Yes	0.526901200002612	0	259696	252
509.279296875	0.526901200002612	health	choicePhaseStart	1	59	59	foodImage.87	FOODEEG_Images\0873.jpg	YN	Left	Yes	0.526901200002612	0	260752	253
509.796875	0	health	response	1	59	59	foodImage.87	FOODEEG_Images\0873.jpg	YN	Left	Yes	0.526901200002612	0	261017	234
510.83984375	1	taste	trialStart	1	60	60	foodImage.119	FOODEEG_Images\0927.jpg	NY	Left	No	0.63573869999891	0	261551	251
511.890625	2	taste	foodImageDisplay	1	60	60	foodImage.119	FOODEEG_Images\0927.jpg	NY	Left	No	0.63573869999891	0	262089	252
513.955078125	0.63573869999891	taste	choicePhaseStart	1	60	60	foodImage.119	FOODEEG_Images\0927.jpg	NY	Left	No	0.63573869999891	0	263146	253
514.580078125	0	taste	response	1	60	60	foodImage.119	FOODEEG_Images\0927.jpg	NY	Left	No	0.63573869999891	0	263466	234
516.623046875	2.4609375	n/a	blockEnd	n/a	n/a	n/a	n/a	n/a	n/a	n/a	n/a	n/a	n/a	264512	254
519.083984375	2	n/a	blockStart	2	n/a	n/a	n/a	n/a	n/a	n/a	n/a	n/a	n/a	265772	250
521.123046875	1	decision	trialStart	2	61	1	foodImage.22	FOODEEG_Images\0236.jpg	NY	Right	Yes	1.180620799998	0	266816	251
522.16796875	2	decision	foodImageDisplay	2	61	1	foodImage.22	FOODEEG_Images\0236.jpg	NY	Right	Yes	1.180620799998	0	267351	252
524.232421875	1.180620799998	decision	choicePhaseStart	2	61	1	foodImage.22	FOODEEG_Images\0236.jpg	NY	Right	Yes	1.180620799998	0	268408	253
525.404296875	0	decision	response	2	61	1	foodImage.22	FOODEEG_Images\0236.jpg	NY	Right	Yes	1.180620799998	0	269008	235
526.447265625	1	decision	trialStart	2	62	2	foodImage.45	FOODEEG_Images\0478.jpg	YN	Left	Yes	0.645294499998272	0	269542	251
527.51171875	2	decision	foodImageDisplay	2	62	2	foodImage.45	FOODEEG_Images\0478.jpg	YN	Left	Yes	0.645294499998272	0	270087	252
529.576171875	0.645294499998272	decision	choicePhaseStart	2	62	2	foodImage.45	FOODEEG_Images\0478.jpg	YN	Left	Yes	0.645294499998272	0	271144	253
530.212890625	0	decision	response	2	62	2	foodImage.45	FOODEEG_Images\0478.jpg	YN	Left	Yes	0.645294499998272	0	271470	234
531.2578125	1	decision	trialStart	2	63	3	foodImage.97	FOODEEG_Images\0905.jpg	YN	Right	No	0.939482699999644	0	272005	251
532.314453125	2	decision	foodImageDisplay	2	63	3	foodImage.97	FOODEEG_Images\0905.jpg	YN	Right	No	0.939482699999644	0	272546	252
534.37890625	0.939482699999644	decision	choicePhaseStart	2	63	3	foodImage.97	FOODEEG_Images\0905.jpg	YN	Right	No	0.939482699999644	0	273603	253
535.30859375	0	decision	response	2	63	3	foodImage.97	FOODEEG_Images\0905.jpg	YN	Right	No	0.939482699999644	0	274079	235
536.3515625	1	decision	trialStart	2	64	4	foodImage.81	FOODEEG_Images\0797.jpg	YN	Left	Yes	0.745811900000263	0	274613	251
537.435546875	2	decision	foodImageDisplay	2	64	4	foodImage.81	FOODEEG_Images\0797.jpg	YN	Left	Yes	0.745811900000263	0	275168	252
539.5	0.745811900000263	decision	choicePhaseStart	2	64	4	foodImage.81	FOODEEG_Images\0797.jpg	YN	Left	Yes	0.745811900000263	0	276225	253
540.236328125	0	decision	response	2	64	4	foodImage.81	FOODEEG_Images\0797.jpg	YN	Left	Yes	0.745811900000263	0	276602	234
541.27734375	1	taste	trialStart	2	65	5	foodImage.96	FOODEEG_Images\0904.jpg	YN	Right	No	0.775775800000702	0	277135	251
542.33203125	2	taste	foodImageDisplay	2	65	5	foodImage.96	FOODEEG_Images\0904.jpg	YN	Right	No	0.775775800000702	0	277675	252
544.396484375	0.775775800000702	taste	choicePhaseStart	2	65	5	foodImage.96	FOODEEG_Images\0904.jpg	YN	Right	No	0.775775800000702	0	278732	253
545.1640625	0	taste	response	2	65	5	foodImage.96	FOODEEG_Images\0904.jpg	YN	Right	No	0.775775800000702	0	279125	235
546.208984375	1	decision	trialStart	2	66	6	foodImage.23	FOODEEG_Images\0244.jpg	YN	Right	No	0.628927000001568	0	279660	251
547.271484375	2	decision	foodImageDisplay	2	66	6	foodImage.23	FOODEEG_Images\0244.jpg	YN	Right	No	0.628927000001568	0	280204	252
549.333984375	0.628927000001568	decision	choicePhaseStart	2	66	6	foodImage.23	FOODEEG_Images\0244.jpg	YN	Right	No	0.628927000001568	0	281260	253
549.955078125	0	decision	response	2	66	6	foodImage.23	FOODEEG_Images\0244.jpg	YN	Right	No	0.628927000001568	0	281578	235
551	1	taste	trialStart	2	67	7	foodImage.49	FOODEEG_Images\0515.jpg	NY	Right	Yes	0.784900700000435	0	282113	251
552.060546875	2	taste	foodImageDisplay	2	67	7	foodImage.49	FOODEEG_Images\0515.jpg	NY	Right	Yes	0.784900700000435	0	282656	252
554.123046875	0.784900700000435	taste	choicePhaseStart	2	67	7	foodImage.49	FOODEEG_Images\0515.jpg	NY	Right	Yes	0.784900700000435	0	283712	253
554.900390625	0	taste	response	2	67	7	foodImage.49	FOODEEG_Images\0515.jpg	NY	Right	Yes	0.784900700000435	0	284110	235
555.943359375	1	decision	trialStart	2	68	8	foodImage.34	FOODEEG_Images\0339.jpg	YN	Right	No	0.625161700001627	0	284644	251
557.025390625	2	decision	foodImageDisplay	2	68	8	foodImage.34	FOODEEG_Images\0339.jpg	YN	Right	No	0.625161700001627	0	285198	252
559.08984375	0.625161700001627	decision	choicePhaseStart	2	68	8	foodImage.34	FOODEEG_Images\0339.jpg	YN	Right	No	0.625161700001627	0	286255	253
559.70703125	0	decision	response	2	68	8	foodImage.34	FOODEEG_Images\0339.jpg	YN	Right	No	0.625161700001627	0	286571	235
560.75	1	health	trialStart	2	69	9	foodImage.116	FOODEEG_Images\0924.jpg	YN	Right	No	1.28787060000104	0	287105	251
561.7890625	2	health	foodImageDisplay	2	69	9	foodImage.116	FOODEEG_Images\0924.jpg	YN	Right	No	1.28787060000104	0	287637	252
563.853515625	1.28787060000104	health	choicePhaseStart	2	69	9	foodImage.116	FOODEEG_Images\0924.jpg	YN	Right	No	1.28787060000104	0	288694	253
565.130859375	0	health	response	2	69	9	foodImage.116	FOODEEG_Images\0924.jpg	YN	Right	No	1.28787060000104	0	289348	235
566.173828125	1	health	trialStart	2	70	10	foodImage.42	FOODEEG_Images\0438.jpg	NY	Right	Yes	2.37001489999966	0	289882	251
567.2890625	2	health	foodImageDisplay	2	70	10	foodImage.42	FOODEEG_Images\0438.jpg	NY	Right	Yes	2.37001489999966	0	290453	252
569.353515625	2.37001489999966	health	choicePhaseStart	2	70	10	foodImage.42	FOODEEG_Images\0438.jpg	NY	Right	Yes	2.37001489999966	0	291510	253
571.71484375	0	health	response	2	70	10	foodImage.42	FOODEEG_Images\0438.jpg	NY	Right	Yes	2.37001489999966	0	292719	235
572.7578125	1	health	trialStart	2	71	11	foodImage.4	FOODEEG_Images\0065.jpg	NY	Left	No	0.945851300002687	0	293253	251
573.833984375	2	health	foodImageDisplay	2	71	11	foodImage.4	FOODEEG_Images\0065.jpg	NY	Left	No	0.945851300002687	0	293804	252
575.8984375	0.945851300002687	health	choicePhaseStart	2	71	11	foodImage.4	FOODEEG_Images\0065.jpg	NY	Left	No	0.945851300002687	0	294861	253
576.8359375	0	health	response	2	71	11	foodImage.4	FOODEEG_Images\0065.jpg	NY	Left	No	0.945851300002687	0	295341	234
577.876953125	1	health	trialStart	2	72	12	foodImage.90	FOODEEG_Images\0890.jpg	NY	Left	No	1.0889371000012	0	295874	251
578.947265625	2	health	foodImageDisplay	2	72	12	foodImage.90	FOODEEG_Images\0890.jpg	NY	Left	No	1.0889371000012	0	296422	252
581.009765625	1.0889371000012	health	choicePhaseStart	2	72	12	foodImage.90	FOODEEG_Images\0890.jpg	NY	Left	No	1.0889371000012	0	297478	253
582.08984375	0	health	response	2	72	12	foodImage.90	FOODEEG_Images\0890.jpg	NY	Left	No	1.0889371000012	0	298031	234
583.134765625	1	health	trialStart	2	73	13	foodImage.47	FOODEEG_Images\0488.jpg	NY	Left	No	0.762431399998604	0	298566	251
584.1953125	2	health	foodImageDisplay	2	73	13	foodImage.47	FOODEEG_Images\0488.jpg	NY	Left	No	0.762431399998604	0	299109	252
586.2578125	0.762431399998604	health	choicePhaseStart	2	73	13	foodImage.47	FOODEEG_Images\0488.jpg	NY	Left	No	0.762431399998604	0	300165	253
587.009765625	0	health	response	2	73	13	foodImage.47	FOODEEG_Images\0488.jpg	NY	Left	No	0.762431399998604	0	300550	234
588.052734375	1	health	trialStart	2	74	14	foodImage.60	FOODEEG_Images\0614.jpg	YN	Left	Yes	0.764127800001006	0	301084	251
589.11328125	2	health	foodImageDisplay	2	74	14	foodImage.60	FOODEEG_Images\0614.jpg	YN	Left	Yes	0.764127800001006	0	301627	252
591.181640625	0.764127800001006	health	choicePhaseStart	2	74	14	foodImage.60	FOODEEG_Images\0614.jpg	YN	Left	Yes	0.764127800001006	0	302686	253
591.939453125	0	health	response	2	74	14	foodImage.60	FOODEEG_Images\0614.jpg	YN	Left	Yes	0.764127800001006	0	303074	234
592.98046875	1	health	trialStart	2	75	15	foodImage.16	FOODEEG_Images\0196.jpg	YN	Left	Yes	0.486441699998977	0	303607	251
594.052734375	2	health	foodImageDisplay	2	75	15	foodImage.16	FOODEEG_Images\0196.jpg	YN	Left	Yes	0.486441699998977	0	304156	252
596.1171875	0.486441699998977	health	choicePhaseStart	2	75	15	foodImage.16	FOODEEG_Images\0196.jpg	YN	Left	Yes	0.486441699998977	0	305213	253
596.59375	0	health	response	2	75	15	foodImage.16	FOODEEG_Images\0196.jpg	YN	Left	Yes	0.486441699998977	0	305457	234
597.638671875	1	health	trialStart	2	76	16	foodImage.1	FOODEEG_Images\0004.jpg	YN	Right	No	0.566772199999832	0	305992	251
598.693359375	2	health	foodImageDisplay	2	76	16	foodImage.1	FOODEEG_Images\0004.jpg	YN	Right	No	0.566772199999832	0	306532	252
600.755859375	0.566772199999832	health	choicePhaseStart	2	76	16	foodImage.1	FOODEEG_Images\0004.jpg	YN	Right	No	0.566772199999832	0	307588	253
601.314453125	0	health	response	2	76	16	foodImage.1	FOODEEG_Images\0004.jpg	YN	Right	No	0.566772199999832	0	307874	235
602.35546875	1	health	trialStart	2	77	17	foodImage.26	FOODEEG_Images\0262.jpg	YN	Left	Yes	0.497334299998329	0	308407	251
603.3984375	2	health	foodImageDisplay	2	77	17	foodImage.26	FOODEEG_Images\0262.jpg	YN	Left	Yes	0.497334299998329	0	308941	252
605.46484375	0.497334299998329	health	choicePhaseStart	2	77	17	foodImage.26	FOODEEG_Images\0262.jpg	YN	Left	Yes	0.497334299998329	0	309999	253
605.955078125	0	health	response	2	77	17	foodImage.26	FOODEEG_Images\0262.jpg	YN	Left	Yes	0.497334299998329	0	310250	234
606.99609375	1	decision	trialStart	2	78	18	foodImage.19	FOODEEG_Images\0225.jpg	NY	Right	Yes	0.665013300000282	0	310783	251
608.041015625	2	decision	foodImageDisplay	2	78	18	foodImage.19	FOODEEG_Images\0225.jpg	NY	Right	Yes	0.665013300000282	0	311318	252
610.10546875	0.665013300000282	decision	choicePhaseStart	2	78	18	foodImage.19	FOODEEG_Images\0225.jpg	NY	Right	Yes	0.665013300000282	0	312375	253
610.76171875	0	decision	response	2	78	18	foodImage.19	FOODEEG_Images\0225.jpg	NY	Right	Yes	0.665013300000282	0	312711	235
611.8046875	1	taste	trialStart	2	79	19	foodImage.28	FOODEEG_Images\0273.jpg	NY	Right	Yes	0.836012399999163	0	313245	251
612.84765625	2	taste	foodImageDisplay	2	79	19	foodImage.28	FOODEEG_Images\0273.jpg	NY	Right	Yes	0.836012399999163	0	313779	252
614.91015625	0.836012399999163	taste	choicePhaseStart	2	79	19	foodImage.28	FOODEEG_Images\0273.jpg	NY	Right	Yes	0.836012399999163	0	314835	253
615.73828125	0	taste	response	2	79	19	foodImage.28	FOODEEG_Images\0273.jpg	NY	Right	Yes	0.836012399999163	0	315259	235
616.78125	1	health	trialStart	2	80	20	foodImage.71	FOODEEG_Images\0713.jpg	NY	Left	No	0.73447490000035	0	315793	251
617.822265625	2	health	foodImageDisplay	2	80	20	foodImage.71	FOODEEG_Images\0713.jpg	NY	Left	No	0.73447490000035	0	316326	252
619.884765625	0.73447490000035	health	choicePhaseStart	2	80	20	foodImage.71	FOODEEG_Images\0713.jpg	NY	Left	No	0.73447490000035	0	317382	253
620.609375	0	health	response	2	80	20	foodImage.71	FOODEEG_Images\0713.jpg	NY	Left	No	0.73447490000035	0	317753	234
621.65234375	1	decision	trialStart	2	81	21	foodImage.102	FOODEEG_Images\0910.jpg	YN	Right	No	0.616840700000466	0	318287	251
622.697265625	2	decision	foodImageDisplay	2	81	21	foodImage.102	FOODEEG_Images\0910.jpg	YN	Right	No	0.616840700000466	0	318822	252
624.76171875	0.616840700000466	decision	choicePhaseStart	2	81	21	foodImage.102	FOODEEG_Images\0910.jpg	YN	Right	No	0.616840700000466	0	319879	253
625.369140625	0	decision	response	2	81	21	foodImage.102	FOODEEG_Images\0910.jpg	YN	Right	No	0.616840700000466	0	320190	235
626.412109375	1	decision	trialStart	2	82	22	foodImage.2	FOODEEG_Images\0028.jpg	NY	Right	Yes	0.737953600000765	0	320724	251
627.47265625	2	decision	foodImageDisplay	2	82	22	foodImage.2	FOODEEG_Images\0028.jpg	NY	Right	Yes	0.737953600000765	0	321267	252
629.537109375	0.737953600000765	decision	choicePhaseStart	2	82	22	foodImage.2	FOODEEG_Images\0028.jpg	NY	Right	Yes	0.737953600000765	0	322324	253
630.265625	0	decision	response	2	82	22	foodImage.2	FOODEEG_Images\0028.jpg	NY	Right	Yes	0.737953600000765	0	322697	235
631.30859375	1	health	trialStart	2	83	23	foodImage.82	FOODEEG_Images\0805.jpg	YN	Left	Yes	0.557277399999293	0	323231	251
632.37890625	2	health	foodImageDisplay	2	83	23	foodImage.82	FOODEEG_Images\0805.jpg	YN	Left	Yes	0.557277399999293	0	323779	252
634.44140625	0.557277399999293	health	choicePhaseStart	2	83	23	foodImage.82	FOODEEG_Images\0805.jpg	YN	Left	Yes	0.557277399999293	0	324835	253
634.994140625	0	health	response	2	83	23	foodImage.82	FOODEEG_Images\0805.jpg	YN	Left	Yes	0.557277399999293	0	325118	234
636.03515625	1	decision	trialStart	2	84	24	foodImage.73	FOODEEG_Images\0717.jpg	NY	Right	Yes	0.721644000001106	0	325651	251
637.12109375	2	decision	foodImageDisplay	2	84	24	foodImage.73	FOODEEG_Images\0717.jpg	NY	Right	Yes	0.721644000001106	0	326207	252
639.185546875	0.721644000001106	decision	choicePhaseStart	2	84	24	foodImage.73	FOODEEG_Images\0717.jpg	NY	Right	Yes	0.721644000001106	0	327264	253
639.896484375	0	decision	response	2	84	24	foodImage.73	FOODEEG_Images\0717.jpg	NY	Right	Yes	0.721644000001106	0	327628	235
640.939453125	1	health	trialStart	2	85	25	foodImage.109	FOODEEG_Images\0917.jpg	YN	Right	No	1.05244949999906	0	328162	251
641.9921875	2	health	foodImageDisplay	2	85	25	foodImage.109	FOODEEG_Images\0917.jpg	YN	Right	No	1.05244949999906	0	328701	252
644.052734375	1.05244949999906	health	choicePhaseStart	2	85	25	foodImage.109	FOODEEG_Images\0917.jpg	YN	Right	No	1.05244949999906	0	329756	253
645.09765625	0	health	response	2	85	25	foodImage.109	FOODEEG_Images\0917.jpg	YN	Right	No	1.05244949999906	0	330291	235
646.1484375	1	taste	trialStart	2	86	26	foodImage.43	FOODEEG_Images\0445.jpg	NY	Right	Yes	1.30135899999732	0	330829	251
647.205078125	2	taste	foodImageDisplay	2	86	26	foodImage.43	FOODEEG_Images\0445.jpg	NY	Right	Yes	1.30135899999732	0	331370	252
649.267578125	1.30135899999732	taste	choicePhaseStart	2	86	26	foodImage.43	FOODEEG_Images\0445.jpg	NY	Right	Yes	1.30135899999732	0	332426	253
650.560546875	0	taste	response	2	86	26	foodImage.43	FOODEEG_Images\0445.jpg	NY	Right	Yes	1.30135899999732	0	333088	235
651.603515625	1	taste	trialStart	2	87	27	foodImage.32	FOODEEG_Images\0319.jpg	NY	Right	Yes	0.951701399997546	0	333622	251
652.646484375	2	taste	foodImageDisplay	2	87	27	foodImage.32	FOODEEG_Images\0319.jpg	NY	Right	Yes	0.951701399997546	0	334156	252
654.71484375	0.951701399997546	taste	choicePhaseStart	2	87	27	foodImage.32	FOODEEG_Images\0319.jpg	NY	Right	Yes	0.951701399997546	0	335215	253
655.65625	0	taste	response	2	87	27	foodImage.32	FOODEEG_Images\0319.jpg	NY	Right	Yes	0.951701399997546	0	335697	235
656.69921875	1	decision	trialStart	2	88	28	foodImage.30	FOODEEG_Images\0282.jpg	YN	Left	Yes	1.00811210000029	0	336231	251
657.74609375	2	decision	foodImageDisplay	2	88	28	foodImage.30	FOODEEG_Images\0282.jpg	YN	Left	Yes	1.00811210000029	0	336767	252
659.80859375	1.00811210000029	decision	choicePhaseStart	2	88	28	foodImage.30	FOODEEG_Images\0282.jpg	YN	Left	Yes	1.00811210000029	0	337823	253
660.80859375	0	decision	response	2	88	28	foodImage.30	FOODEEG_Images\0282.jpg	YN	Left	Yes	1.00811210000029	0	338335	234
661.8515625	1	decision	trialStart	2	89	29	foodImage.8	FOODEEG_Images\0136.jpg	YN	Right	No	0.767831199998909	0	338869	251
662.89453125	2	decision	foodImageDisplay	2	89	29	foodImage.8	FOODEEG_Images\0136.jpg	YN	Right	No	0.767831199998909	0	339403	252
664.958984375	0.767831199998909	decision	choicePhaseStart	2	89	29	foodImage.8	FOODEEG_Images\0136.jpg	YN	Right	No	0.767831199998909	0	340460	253
665.720703125	0	decision	response	2	89	29	foodImage.8	FOODEEG_Images\0136.jpg	YN	Right	No	0.767831199998909	0	340850	235
666.76171875	1	decision	trialStart	2	90	30	foodImage.33	FOODEEG_Images\0329.jpg	NY	Right	Yes	0.566354700000375	0	341383	251
667.802734375	2	decision	foodImageDisplay	2	90	30	foodImage.33	FOODEEG_Images\0329.jpg	NY	Right	Yes	0.566354700000375	0	341916	252
669.8671875	0.566354700000375	decision	choicePhaseStart	2	90	30	foodImage.33	FOODEEG_Images\0329.jpg	NY	Right	Yes	0.566354700000375	0	342973	253
670.423828125	0	decision	response	2	90	30	foodImage.33	FOODEEG_Images\0329.jpg	NY	Right	Yes	0.566354700000375	0	343258	235
671.466796875	1	health	trialStart	2	91	31	foodImage.55	FOODEEG_Images\0567.jpg	NY	Right	Yes	0.552807500000199	0	343792	251
672.53515625	2	health	foodImageDisplay	2	91	31	foodImage.55	FOODEEG_Images\0567.jpg	NY	Right	Yes	0.552807500000199	0	344339	252
674.599609375	0.552807500000199	health	choicePhaseStart	2	91	31	foodImage.55	FOODEEG_Images\0567.jpg	NY	Right	Yes	0.552807500000199	0	345396	253
675.14453125	0	health	response	2	91	31	foodImage.55	FOODEEG_Images\0567.jpg	NY	Right	Yes	0.552807500000199	0	345675	235
676.185546875	1	taste	trialStart	2	92	32	foodImage.53	FOODEEG_Images\0547.jpg	NY	Left	No	0.942951599998196	0	346208	251
677.265625	2	taste	foodImageDisplay	2	92	32	foodImage.53	FOODEEG_Images\0547.jpg	NY	Left	No	0.942951599998196	0	346761	252
679.330078125	0.942951599998196	taste	choicePhaseStart	2	92	32	foodImage.53	FOODEEG_Images\0547.jpg	NY	Left	No	0.942951599998196	0	347818	253
680.263671875	0	taste	response	2	92	32	foodImage.53	FOODEEG_Images\0547.jpg	NY	Left	No	0.942951599998196	0	348296	234
681.3046875	1	decision	trialStart	2	93	33	foodImage.55	FOODEEG_Images\0567.jpg	NY	Right	Yes	0.667167499999778	0	348829	251
682.365234375	2	decision	foodImageDisplay	2	93	33	foodImage.55	FOODEEG_Images\0567.jpg	NY	Right	Yes	0.667167499999778	0	349372	252
684.4296875	0.667167499999778	decision	choicePhaseStart	2	93	33	foodImage.55	FOODEEG_Images\0567.jpg	NY	Right	Yes	0.667167499999778	0	350429	253
685.087890625	0	decision	response	2	93	33	foodImage.55	FOODEEG_Images\0567.jpg	NY	Right	Yes	0.667167499999778	0	350766	235
686.1328125	1	taste	trialStart	2	94	34	foodImage.33	FOODEEG_Images\0329.jpg	YN	Left	Yes	0.655449999998382	0	351301	251
687.177734375	2	taste	foodImageDisplay	2	94	34	foodImage.33	FOODEEG_Images\0329.jpg	YN	Left	Yes	0.655449999998382	0	351836	252
689.2421875	0.655449999998382	taste	choicePhaseStart	2	94	34	foodImage.33	FOODEEG_Images\0329.jpg	YN	Left	Yes	0.655449999998382	0	352893	253
689.88671875	0	taste	response	2	94	34	foodImage.33	FOODEEG_Images\0329.jpg	YN	Left	Yes	0.655449999998382	0	353223	234
690.9296875	1	decision	trialStart	2	95	35	foodImage.89	FOODEEG_Images\0881.jpg	NY	Right	Yes	1.0388314999982	0	353757	251
691.986328125	2	decision	foodImageDisplay	2	95	35	foodImage.89	FOODEEG_Images\0881.jpg	NY	Right	Yes	1.0388314999982	0	354298	252
694.048828125	1.0388314999982	decision	choicePhaseStart	2	95	35	foodImage.89	FOODEEG_Images\0881.jpg	NY	Right	Yes	1.0388314999982	0	355354	253
695.080078125	0	decision	response	2	95	35	foodImage.89	FOODEEG_Images\0881.jpg	NY	Right	Yes	1.0388314999982	0	355882	235
696.119140625	1	decision	trialStart	2	96	36	foodImage.36	FOODEEG_Images\0352.jpg	YN	Left	Yes	2.68727939999735	0	356414	251
697.201171875	2	decision	foodImageDisplay	2	96	36	foodImage.36	FOODEEG_Images\0352.jpg	YN	Left	Yes	2.68727939999735	0	356968	252
699.265625	2.68727939999735	decision	choicePhaseStart	2	96	36	foodImage.36	FOODEEG_Images\0352.jpg	YN	Left	Yes	2.68727939999735	0	358025	253
701.943359375	0	decision	response	2	96	36	foodImage.36	FOODEEG_Images\0352.jpg	YN	Left	Yes	2.68727939999735	0	359396	234
702.986328125	1	decision	trialStart	2	97	37	foodImage.25	FOODEEG_Images\0261.jpg	NY	Right	Yes	0.68177680000008	0	359930	251
704.046875	2	decision	foodImageDisplay	2	97	37	foodImage.25	FOODEEG_Images\0261.jpg	NY	Right	Yes	0.68177680000008	0	360473	252
706.111328125	0.68177680000008	decision	choicePhaseStart	2	97	37	foodImage.25	FOODEEG_Images\0261.jpg	NY	Right	Yes	0.68177680000008	0	361530	253
706.783203125	0	decision	response	2	97	37	foodImage.25	FOODEEG_Images\0261.jpg	NY	Right	Yes	0.68177680000008	0	361874	235
707.826171875	1	taste	trialStart	2	98	38	foodImage.39	FOODEEG_Images\0367.jpg	YN	Left	Yes	1.71190039999783	0	362408	251
708.865234375	2	taste	foodImageDisplay	2	98	38	foodImage.39	FOODEEG_Images\0367.jpg	YN	Left	Yes	1.71190039999783	0	362940	252
710.927734375	1.71190039999783	taste	choicePhaseStart	2	98	38	foodImage.39	FOODEEG_Images\0367.jpg	YN	Left	Yes	1.71190039999783	0	363996	253
712.630859375	0	taste	response	2	98	38	foodImage.39	FOODEEG_Images\0367.jpg	YN	Left	Yes	1.71190039999783	0	364868	234
713.673828125	1	health	trialStart	2	99	39	foodImage.46	FOODEEG_Images\0479.jpg	YN	Left	Yes	0.659003699998721	0	365402	251
714.734375	2	health	foodImageDisplay	2	99	39	foodImage.46	FOODEEG_Images\0479.jpg	YN	Left	Yes	0.659003699998721	0	365945	252
716.796875	0.659003699998721	health	choicePhaseStart	2	99	39	foodImage.46	FOODEEG_Images\0479.jpg	YN	Left	Yes	0.659003699998721	0	367001	253
717.447265625	0	health	response	2	99	39	foodImage.46	FOODEEG_Images\0479.jpg	YN	Left	Yes	0.659003699998721	0	367334	234
718.490234375	1	taste	trialStart	2	100	40	foodImage.21	FOODEEG_Images\0234.jpg	YN	Left	Yes	0.555722199998854	0	367868	251
719.572265625	2	taste	foodImageDisplay	2	100	40	foodImage.21	FOODEEG_Images\0234.jpg	YN	Left	Yes	0.555722199998854	0	368422	252
721.63671875	0.555722199998854	taste	choicePhaseStart	2	100	40	foodImage.21	FOODEEG_Images\0234.jpg	YN	Left	Yes	0.555722199998854	0	369479	253
722.18359375	0	taste	response	2	100	40	foodImage.21	FOODEEG_Images\0234.jpg	YN	Left	Yes	0.555722199998854	0	369759	234
723.2265625	1	health	trialStart	2	101	41	foodImage.112	FOODEEG_Images\0920.jpg	YN	Right	No	1.33255360000112	0	370293	251
724.265625	2	health	foodImageDisplay	2	101	41	foodImage.112	FOODEEG_Images\0920.jpg	YN	Right	No	1.33255360000112	0	370825	252
726.330078125	1.33255360000112	health	choicePhaseStart	2	101	41	foodImage.112	FOODEEG_Images\0920.jpg	YN	Right	No	1.33255360000112	0	371882	253
727.654296875	0	health	response	2	101	41	foodImage.112	FOODEEG_Images\0920.jpg	YN	Right	No	1.33255360000112	0	372560	235
728.697265625	1	taste	trialStart	2	102	42	foodImage.6	FOODEEG_Images\0113.jpg	NY	Left	No	1.00963910000064	0	373094	251
729.7421875	2	taste	foodImageDisplay	2	102	42	foodImage.6	FOODEEG_Images\0113.jpg	NY	Left	No	1.00963910000064	0	373629	252
731.8046875	1.00963910000064	taste	choicePhaseStart	2	102	42	foodImage.6	FOODEEG_Images\0113.jpg	NY	Left	No	1.00963910000064	0	374685	253
732.806640625	0	taste	response	2	102	42	foodImage.6	FOODEEG_Images\0113.jpg	NY	Left	No	1.00963910000064	0	375198	234
733.84765625	1	taste	trialStart	2	103	43	foodImage.89	FOODEEG_Images\0881.jpg	YN	Left	Yes	0.836708199996792	0	375731	251
734.92578125	2	taste	foodImageDisplay	2	103	43	foodImage.89	FOODEEG_Images\0881.jpg	YN	Left	Yes	0.836708199996792	0	376283	252
736.994140625	0.836708199996792	taste	choicePhaseStart	2	103	43	foodImage.89	FOODEEG_Images\0881.jpg	YN	Left	Yes	0.836708199996792	0	377342	253
737.822265625	0	taste	response	2	103	43	foodImage.89	FOODEEG_Images\0881.jpg	YN	Left	Yes	0.836708199996792	0	377766	234
738.865234375	1	decision	trialStart	2	104	44	foodImage.46	FOODEEG_Images\0479.jpg	YN	Left	Yes	1.0032801999987	0	378300	251
739.92578125	2	decision	foodImageDisplay	2	104	44	foodImage.46	FOODEEG_Images\0479.jpg	YN	Left	Yes	1.0032801999987	0	378843	252
741.98828125	1.0032801999987	decision	choicePhaseStart	2	104	44	foodImage.46	FOODEEG_Images\0479.jpg	YN	Left	Yes	1.0032801999987	0	379899	253
742.982421875	0	decision	response	2	104	44	foodImage.46	FOODEEG_Images\0479.jpg	YN	Left	Yes	1.0032801999987	0	380408	234
744.0234375	1	decision	trialStart	2	105	45	foodImage.78	FOODEEG_Images\0787.jpg	NY	Right	Yes	0.693353900001966	0	380941	251
745.076171875	2	decision	foodImageDisplay	2	105	45	foodImage.78	FOODEEG_Images\0787.jpg	NY	Right	Yes	0.693353900001966	0	381480	252
747.14453125	0.693353900001966	decision	choicePhaseStart	2	105	45	foodImage.78	FOODEEG_Images\0787.jpg	NY	Right	Yes	0.693353900001966	0	382539	253
747.830078125	0	decision	response	2	105	45	foodImage.78	FOODEEG_Images\0787.jpg	NY	Right	Yes	0.693353900001966	0	382890	235
748.873046875	1	taste	trialStart	2	106	46	foodImage.17	FOODEEG_Images\0199.jpg	YN	Left	Yes	0.781731700000819	0	383424	251
749.9296875	2	taste	foodImageDisplay	2	106	46	foodImage.17	FOODEEG_Images\0199.jpg	YN	Left	Yes	0.781731700000819	0	383965	252
751.994140625	0.781731700000819	taste	choicePhaseStart	2	106	46	foodImage.17	FOODEEG_Images\0199.jpg	YN	Left	Yes	0.781731700000819	0	385022	253
752.765625	0	taste	response	2	106	46	foodImage.17	FOODEEG_Images\0199.jpg	YN	Left	Yes	0.781731700000819	0	385417	234
753.810546875	1	decision	trialStart	2	107	47	foodImage.63	FOODEEG_Images\0645.jpg	NY	Left	No	2.38816669999869	0	385952	251
754.86328125	2	decision	foodImageDisplay	2	107	47	foodImage.63	FOODEEG_Images\0645.jpg	NY	Left	No	2.38816669999869	0	386491	252
756.927734375	2.38816669999869	decision	choicePhaseStart	2	107	47	foodImage.63	FOODEEG_Images\0645.jpg	NY	Left	No	2.38816669999869	0	387548	253
759.30859375	0	decision	response	2	107	47	foodImage.63	FOODEEG_Images\0645.jpg	NY	Left	No	2.38816669999869	0	388767	234
760.3515625	1	taste	trialStart	2	108	48	foodImage.7	FOODEEG_Images\0116.jpg	YN	Left	Yes	1.18944940000074	0	389301	251
761.400390625	2	taste	foodImageDisplay	2	108	48	foodImage.7	FOODEEG_Images\0116.jpg	YN	Left	Yes	1.18944940000074	0	389838	252
763.46484375	1.18944940000074	taste	choicePhaseStart	2	108	48	foodImage.7	FOODEEG_Images\0116.jpg	YN	Left	Yes	1.18944940000074	0	390895	253
764.64453125	0	taste	response	2	108	48	foodImage.7	FOODEEG_Images\0116.jpg	YN	Left	Yes	1.18944940000074	0	391499	234
765.689453125	1	health	trialStart	2	109	49	foodImage.27	FOODEEG_Images\0263.jpg	NY	Right	Yes	0.873249200001737	0	392034	251
766.73046875	2	health	foodImageDisplay	2	109	49	foodImage.27	FOODEEG_Images\0263.jpg	NY	Right	Yes	0.873249200001737	0	392567	252
768.794921875	0.873249200001737	health	choicePhaseStart	2	109	49	foodImage.27	FOODEEG_Images\0263.jpg	NY	Right	Yes	0.873249200001737	0	393624	253
769.662109375	0	health	response	2	109	49	foodImage.27	FOODEEG_Images\0263.jpg	NY	Right	Yes	0.873249200001737	0	394068	235
770.703125	1	taste	trialStart	2	110	50	foodImage.44	FOODEEG_Images\0459.jpg	NY	Left	No	1.28902969999763	0	394601	251
771.75	2	taste	foodImageDisplay	2	110	50	foodImage.44	FOODEEG_Images\0459.jpg	NY	Left	No	1.28902969999763	0	395137	252
773.8125	1.28902969999763	taste	choicePhaseStart	2	110	50	foodImage.44	FOODEEG_Images\0459.jpg	NY	Left	No	1.28902969999763	0	396193	253
775.091796875	0	taste	response	2	110	50	foodImage.44	FOODEEG_Images\0459.jpg	NY	Left	No	1.28902969999763	0	396848	234
776.134765625	1	decision	trialStart	2	111	51	foodImage.101	FOODEEG_Images\0909.jpg	YN	Right	No	0.674609200003033	0	397382	251
777.171875	2	decision	foodImageDisplay	2	111	51	foodImage.101	FOODEEG_Images\0909.jpg	YN	Right	No	0.674609200003033	0	397913	252
779.236328125	0.674609200003033	decision	choicePhaseStart	2	111	51	foodImage.101	FOODEEG_Images\0909.jpg	YN	Right	No	0.674609200003033	0	398970	253
779.900390625	0	decision	response	2	111	51	foodImage.101	FOODEEG_Images\0909.jpg	YN	Right	No	0.674609200003033	0	399310	235
780.943359375	1	health	trialStart	2	112	52	foodImage.79	FOODEEG_Images\0794.jpg	YN	Left	Yes	0.689947400001984	0	399844	251
781.986328125	2	health	foodImageDisplay	2	112	52	foodImage.79	FOODEEG_Images\0794.jpg	YN	Left	Yes	0.689947400001984	0	400378	252
784.05078125	0.689947400001984	health	choicePhaseStart	2	112	52	foodImage.79	FOODEEG_Images\0794.jpg	YN	Left	Yes	0.689947400001984	0	401435	253
784.732421875	0	health	response	2	112	52	foodImage.79	FOODEEG_Images\0794.jpg	YN	Left	Yes	0.689947400001984	0	401784	234
785.775390625	1	taste	trialStart	2	113	53	foodImage.36	FOODEEG_Images\0352.jpg	YN	Left	Yes	0.763039000001299	0	402318	251
786.85546875	2	taste	foodImageDisplay	2	113	53	foodImage.36	FOODEEG_Images\0352.jpg	YN	Left	Yes	0.763039000001299	0	402871	252
788.919921875	0.763039000001299	taste	choicePhaseStart	2	113	53	foodImage.36	FOODEEG_Images\0352.jpg	YN	Left	Yes	0.763039000001299	0	403928	253
789.67578125	0	taste	response	2	113	53	foodImage.36	FOODEEG_Images\0352.jpg	YN	Left	Yes	0.763039000001299	0	404315	234
790.71875	1	taste	trialStart	2	114	54	foodImage.118	FOODEEG_Images\0926.jpg	YN	Right	No	0.718391399997927	0	404849	251
791.7734375	2	taste	foodImageDisplay	2	114	54	foodImage.118	FOODEEG_Images\0926.jpg	YN	Right	No	0.718391399997927	0	405389	252
793.8359375	0.718391399997927	taste	choicePhaseStart	2	114	54	foodImage.118	FOODEEG_Images\0926.jpg	YN	Right	No	0.718391399997927	0	406445	253
794.548828125	0	taste	response	2	114	54	foodImage.118	FOODEEG_Images\0926.jpg	YN	Right	No	0.718391399997927	0	406810	235
795.58984375	1	decision	trialStart	2	115	55	foodImage.4	FOODEEG_Images\0065.jpg	YN	Left	Yes	1.2503790999981	0	407343	251
796.67578125	2	decision	foodImageDisplay	2	115	55	foodImage.4	FOODEEG_Images\0065.jpg	YN	Left	Yes	1.2503790999981	0	407899	252
798.73828125	1.2503790999981	decision	choicePhaseStart	2	115	55	foodImage.4	FOODEEG_Images\0065.jpg	YN	Left	Yes	1.2503790999981	0	408955	253
799.98046875	0	decision	response	2	115	55	foodImage.4	FOODEEG_Images\0065.jpg	YN	Left	Yes	1.2503790999981	0	409591	234
801.021484375	1	taste	trialStart	2	116	56	foodImage.109	FOODEEG_Images\0917.jpg	YN	Left	Yes	1.5303187999998	0	410124	251
802.060546875	2	taste	foodImageDisplay	2	116	56	foodImage.109	FOODEEG_Images\0917.jpg	YN	Left	Yes	1.5303187999998	0	410656	252
804.123046875	1.5303187999998	taste	choicePhaseStart	2	116	56	foodImage.109	FOODEEG_Images\0917.jpg	YN	Left	Yes	1.5303187999998	0	411712	253
805.64453125	0	taste	response	2	116	56	foodImage.109	FOODEEG_Images\0917.jpg	YN	Left	Yes	1.5303187999998	0	412491	234
806.685546875	1	health	trialStart	2	117	57	foodImage.29	FOODEEG_Images\0278.jpg	YN	Left	Yes	0.998795800001972	0	413024	251
807.728515625	2	health	foodImageDisplay	2	117	57	foodImage.29	FOODEEG_Images\0278.jpg	YN	Left	Yes	0.998795800001972	0	413558	252
809.791015625	0.998795800001972	health	choicePhaseStart	2	117	57	foodImage.29	FOODEEG_Images\0278.jpg	YN	Left	Yes	0.998795800001972	0	414614	253
810.779296875	0	health	response	2	117	57	foodImage.29	FOODEEG_Images\0278.jpg	YN	Left	Yes	0.998795800001972	0	415120	234
811.822265625	1	taste	trialStart	2	118	58	foodImage.112	FOODEEG_Images\0920.jpg	YN	Right	No	1.32785950000107	0	415654	251
812.876953125	2	taste	foodImageDisplay	2	118	58	foodImage.112	FOODEEG_Images\0920.jpg	YN	Right	No	1.32785950000107	0	416194	252
814.94140625	1.32785950000107	taste	choicePhaseStart	2	118	58	foodImage.112	FOODEEG_Images\0920.jpg	YN	Right	No	1.32785950000107	0	417251	253
816.259765625	0	taste	response	2	118	58	foodImage.112	FOODEEG_Images\0920.jpg	YN	Right	No	1.32785950000107	0	417926	235
817.306640625	1	health	trialStart	2	119	59	foodImage.62	FOODEEG_Images\0644.jpg	NY	Right	Yes	0.728718700000172	0	418462	251
818.36328125	2	health	foodImageDisplay	2	119	59	foodImage.62	FOODEEG_Images\0644.jpg	NY	Right	Yes	0.728718700000172	0	419003	252
820.427734375	0.728718700000172	health	choicePhaseStart	2	119	59	foodImage.62	FOODEEG_Images\0644.jpg	NY	Right	Yes	0.728718700000172	0	420060	253
821.146484375	0	health	response	2	119	59	foodImage.62	FOODEEG_Images\0644.jpg	NY	Right	Yes	0.728718700000172	0	420428	235
822.193359375	1	decision	trialStart	2	120	60	foodImage.80	FOODEEG_Images\0796.jpg	YN	Left	Yes	0.673060199998872	0	420964	251
823.275390625	2	decision	foodImageDisplay	2	120	60	foodImage.80	FOODEEG_Images\0796.jpg	YN	Left	Yes	0.673060199998872	0	421518	252
825.33984375	0.673060199998872	decision	choicePhaseStart	2	120	60	foodImage.80	FOODEEG_Images\0796.jpg	YN	Left	Yes	0.673060199998872	0	422575	253
826.001953125	0	decision	response	2	120	60	foodImage.80	FOODEEG_Images\0796.jpg	YN	Left	Yes	0.673060199998872	0	422914	234
828.044921875	16.837890625	n/a	blockEnd	n/a	n/a	n/a	n/a	n/a	n/a	n/a	n/a	n/a	n/a	423960	254
844.8828125	2	n/a	blockStart	3	n/a	n/a	n/a	n/a	n/a	n/a	n/a	n/a	n/a	432581	250
846.916015625	1	taste	trialStart	3	121	1	foodImage.35	FOODEEG_Images\0350.jpg	NY	Right	Yes	0.598943000000872	0	433622	251
847.95703125	2	taste	foodImageDisplay	3	121	1	foodImage.35	FOODEEG_Images\0350.jpg	NY	Right	Yes	0.598943000000872	0	434155	252
850.01953125	0.598943000000872	taste	choicePhaseStart	3	121	1	foodImage.35	FOODEEG_Images\0350.jpg	NY	Right	Yes	0.598943000000872	0	435211	253
850.611328125	0	taste	response	3	121	1	foodImage.35	FOODEEG_Images\0350.jpg	NY	Right	Yes	0.598943000000872	0	435514	235
851.654296875	1	health	trialStart	3	122	2	foodImage.119	FOODEEG_Images\0927.jpg	NY	Left	No	0.479865900000732	0	436048	251
852.69140625	2	health	foodImageDisplay	3	122	2	foodImage.119	FOODEEG_Images\0927.jpg	NY	Left	No	0.479865900000732	0	436579	252
854.755859375	0.479865900000732	health	choicePhaseStart	3	122	2	foodImage.119	FOODEEG_Images\0927.jpg	NY	Left	No	0.479865900000732	0	437636	253
855.2265625	0	health	response	3	122	2	foodImage.119	FOODEEG_Images\0927.jpg	NY	Left	No	0.479865900000732	0	437877	234
856.267578125	1	decision	trialStart	3	123	3	foodImage.117	FOODEEG_Images\0925.jpg	NY	Left	No	0.549423999997089	0	438410	251
857.318359375	2	decision	foodImageDisplay	3	123	3	foodImage.117	FOODEEG_Images\0925.jpg	NY	Left	No	0.549423999997089	0	438948	252
859.3828125	0.549423999997089	decision	choicePhaseStart	3	123	3	foodImage.117	FOODEEG_Images\0925.jpg	NY	Left	No	0.549423999997089	0	440005	253
859.921875	0	decision	response	3	123	3	foodImage.117	FOODEEG_Images\0925.jpg	NY	Left	No	0.549423999997089	0	440281	234
860.96484375	1	decision	trialStart	3	124	4	foodImage.85	FOODEEG_Images\0841.jpg	YN	Left	Yes	0.671274000000267	0	440815	251
862.044921875	2	decision	foodImageDisplay	3	124	4	foodImage.85	FOODEEG_Images\0841.jpg	YN	Left	Yes	0.671274000000267	0	441368	252
864.107421875	0.671274000000267	decision	choicePhaseStart	3	124	4	foodImage.85	FOODEEG_Images\0841.jpg	YN	Left	Yes	0.671274000000267	0	442424	253
864.76953125	0	decision	response	3	124	4	foodImage.85	FOODEEG_Images\0841.jpg	YN	Left	Yes	0.671274000000267	0	442763	234
865.8125	1	health	trialStart	3	125	5	foodImage.34	FOODEEG_Images\0339.jpg	NY	Left	No	0.530971100000897	0	443297	251
866.89453125	2	health	foodImageDisplay	3	125	5	foodImage.34	FOODEEG_Images\0339.jpg	NY	Left	No	0.530971100000897	0	443851	252
868.9609375	0.530971100000897	health	choicePhaseStart	3	125	5	foodImage.34	FOODEEG_Images\0339.jpg	NY	Left	No	0.530971100000897	0	444909	253
869.482421875	0	health	response	3	125	5	foodImage.34	FOODEEG_Images\0339.jpg	NY	Left	No	0.530971100000897	0	445176	234
870.5234375	1	health	trialStart	3	126	6	foodImage.37	FOODEEG_Images\0359.jpg	YN	Left	Yes	0.746394799996779	0	445709	251
871.572265625	2	health	foodImageDisplay	3	126	6	foodImage.37	FOODEEG_Images\0359.jpg	YN	Left	Yes	0.746394799996779	0	446246	252
873.640625	0.746394799996779	health	choicePhaseStart	3	126	6	foodImage.37	FOODEEG_Images\0359.jpg	YN	Left	Yes	0.746394799996779	0	447305	253
874.376953125	0	health	response	3	126	6	foodImage.37	FOODEEG_Images\0359.jpg	YN	Left	Yes	0.746394799996779	0	447682	234
875.421875	1	taste	trialStart	3	127	7	foodImage.55	FOODEEG_Images\0567.jpg	YN	Left	Yes	0.577857000000222	0	448217	251
876.50390625	2	taste	foodImageDisplay	3	127	7	foodImage.55	FOODEEG_Images\0567.jpg	YN	Left	Yes	0.577857000000222	0	448771	252
878.56640625	0.577857000000222	taste	choicePhaseStart	3	127	7	foodImage.55	FOODEEG_Images\0567.jpg	YN	Left	Yes	0.577857000000222	0	449827	253
879.13671875	0	taste	response	3	127	7	foodImage.55	FOODEEG_Images\0567.jpg	YN	Left	Yes	0.577857000000222	0	450119	234
880.1796875	1	taste	trialStart	3	128	8	foodImage.25	FOODEEG_Images\0261.jpg	YN	Left	Yes	0.669346499998937	0	450653	251
881.22265625	2	taste	foodImageDisplay	3	128	8	foodImage.25	FOODEEG_Images\0261.jpg	YN	Left	Yes	0.669346499998937	0	451187	252
883.28515625	0.669346499998937	taste	choicePhaseStart	3	128	8	foodImage.25	FOODEEG_Images\0261.jpg	YN	Left	Yes	0.669346499998937	0	452243	253
883.9453125	0	taste	response	3	128	8	foodImage.25	FOODEEG_Images\0261.jpg	YN	Left	Yes	0.669346499998937	0	452581	234
884.98828125	1	taste	trialStart	3	129	9	foodImage.115	FOODEEG_Images\0923.jpg	YN	Right	No	1.84508300000016	0	453115	251
886.029296875	2	taste	foodImageDisplay	3	129	9	foodImage.115	FOODEEG_Images\0923.jpg	YN	Right	No	1.84508300000016	0	453648	252
888.09375	1.84508300000016	taste	choicePhaseStart	3	129	9	foodImage.115	FOODEEG_Images\0923.jpg	YN	Right	No	1.84508300000016	0	454705	253
889.9296875	0	taste	response	3	129	9	foodImage.115	FOODEEG_Images\0923.jpg	YN	Right	No	1.84508300000016	0	455645	235
890.974609375	1	decision	trialStart	3	130	10	foodImage.98	FOODEEG_Images\0906.jpg	NY	Right	Yes	3.92506899999717	0	456180	251
892.01171875	2	decision	foodImageDisplay	3	130	10	foodImage.98	FOODEEG_Images\0906.jpg	NY	Right	Yes	3.92506899999717	0	456711	252
894.07421875	3.92506899999717	decision	choicePhaseStart	3	130	10	foodImage.98	FOODEEG_Images\0906.jpg	NY	Right	Yes	3.92506899999717	0	457767	253
897.9921875	0	decision	response	3	130	10	foodImage.98	FOODEEG_Images\0906.jpg	NY	Right	Yes	3.92506899999717	0	459773	235
899.033203125	1	health	trialStart	3	131	11	foodImage.53	FOODEEG_Images\0547.jpg	YN	Right	No	0.754819400000997	0	460306	251
900.091796875	2	health	foodImageDisplay	3	131	11	foodImage.53	FOODEEG_Images\0547.jpg	YN	Right	No	0.754819400000997	0	460848	252
902.15625	0.754819400000997	health	choicePhaseStart	3	131	11	foodImage.53	FOODEEG_Images\0547.jpg	YN	Right	No	0.754819400000997	0	461905	253
902.904296875	0	health	response	3	131	11	foodImage.53	FOODEEG_Images\0547.jpg	YN	Right	No	0.754819400000997	0	462288	235
903.947265625	1	taste	trialStart	3	132	12	foodImage.4	FOODEEG_Images\0065.jpg	YN	Left	Yes	0.819824999998673	0	462822	251
905.0078125	2	taste	foodImageDisplay	3	132	12	foodImage.4	FOODEEG_Images\0065.jpg	YN	Left	Yes	0.819824999998673	0	463365	252
907.0703125	0.819824999998673	taste	choicePhaseStart	3	132	12	foodImage.4	FOODEEG_Images\0065.jpg	YN	Left	Yes	0.819824999998673	0	464421	253
907.880859375	0	taste	response	3	132	12	foodImage.4	FOODEEG_Images\0065.jpg	YN	Left	Yes	0.819824999998673	0	464836	234
908.923828125	1	health	trialStart	3	133	13	foodImage.67	FOODEEG_Images\0679.jpg	NY	Left	No	1.57808100000329	0	465370	251
910.0078125	2	health	foodImageDisplay	3	133	13	foodImage.67	FOODEEG_Images\0679.jpg	NY	Left	No	1.57808100000329	0	465925	252
912.072265625	1.57808100000329	health	choicePhaseStart	3	133	13	foodImage.67	FOODEEG_Images\0679.jpg	NY	Left	No	1.57808100000329	0	466982	253
913.640625	0	health	response	3	133	13	foodImage.67	FOODEEG_Images\0679.jpg	NY	Left	No	1.57808100000329	0	467785	234
914.68359375	1	decision	trialStart	3	134	14	foodImage.47	FOODEEG_Images\0488.jpg	NY	Left	No	0.813014100000146	0	468319	251
915.724609375	2	decision	foodImageDisplay	3	134	14	foodImage.47	FOODEEG_Images\0488.jpg	NY	Left	No	0.813014100000146	0	468852	252
917.7890625	0.813014100000146	decision	choicePhaseStart	3	134	14	foodImage.47	FOODEEG_Images\0488.jpg	NY	Left	No	0.813014100000146	0	469909	253
918.591796875	0	decision	response	3	134	14	foodImage.47	FOODEEG_Images\0488.jpg	NY	Left	No	0.813014100000146	0	470320	234
919.634765625	1	decision	trialStart	3	135	15	foodImage.119	FOODEEG_Images\0927.jpg	NY	Left	No	0.552344600000652	0	470854	251
920.673828125	2	decision	foodImageDisplay	3	135	15	foodImage.119	FOODEEG_Images\0927.jpg	NY	Left	No	0.552344600000652	0	471386	252
922.73828125	0.552344600000652	decision	choicePhaseStart	3	135	15	foodImage.119	FOODEEG_Images\0927.jpg	NY	Left	No	0.552344600000652	0	472443	253
923.279296875	0	decision	response	3	135	15	foodImage.119	FOODEEG_Images\0927.jpg	NY	Left	No	0.552344600000652	0	472720	234
924.322265625	1	health	trialStart	3	136	16	foodImage.38	FOODEEG_Images\0365.jpg	NY	Right	Yes	0.573809699999401	0	473254	251
925.37890625	2	health	foodImageDisplay	3	136	16	foodImage.38	FOODEEG_Images\0365.jpg	NY	Right	Yes	0.573809699999401	0	473795	252
927.443359375	0.573809699999401	health	choicePhaseStart	3	136	16	foodImage.38	FOODEEG_Images\0365.jpg	NY	Right	Yes	0.573809699999401	0	474852	253
928.0078125	0	health	response	3	136	16	foodImage.38	FOODEEG_Images\0365.jpg	NY	Right	Yes	0.573809699999401	0	475141	235
929.048828125	1	decision	trialStart	3	137	17	foodImage.105	FOODEEG_Images\0913.jpg	NY	Left	No	1.0725577000012	0	475674	251
930.103515625	2	decision	foodImageDisplay	3	137	17	foodImage.105	FOODEEG_Images\0913.jpg	NY	Left	No	1.0725577000012	0	476214	252
932.16796875	1.0725577000012	decision	choicePhaseStart	3	137	17	foodImage.105	FOODEEG_Images\0913.jpg	NY	Left	No	1.0725577000012	0	477271	253
933.232421875	0	decision	response	3	137	17	foodImage.105	FOODEEG_Images\0913.jpg	NY	Left	No	1.0725577000012	0	477816	234
934.2734375	1	decision	trialStart	3	138	18	foodImage.107	FOODEEG_Images\0915.jpg	NY	Left	No	1.59194969999953	0	478349	251
935.3125	2	decision	foodImageDisplay	3	138	18	foodImage.107	FOODEEG_Images\0915.jpg	NY	Left	No	1.59194969999953	0	478881	252
937.376953125	1.59194969999953	decision	choicePhaseStart	3	138	18	foodImage.107	FOODEEG_Images\0915.jpg	NY	Left	No	1.59194969999953	0	479938	253
938.958984375	0	decision	response	3	138	18	foodImage.107	FOODEEG_Images\0915.jpg	NY	Left	No	1.59194969999953	0	480748	234
940.001953125	1	decision	trialStart	3	139	19	foodImage.3	FOODEEG_Images\0046.jpg	YN	Left	Yes	1.0121779000001	0	481282	251
941.060546875	2	decision	foodImageDisplay	3	139	19	foodImage.3	FOODEEG_Images\0046.jpg	YN	Left	Yes	1.0121779000001	0	481824	252
943.125	1.0121779000001	decision	choicePhaseStart	3	139	19	foodImage.3	FOODEEG_Images\0046.jpg	YN	Left	Yes	1.0121779000001	0	482881	253
944.126953125	0	decision	response	3	139	19	foodImage.3	FOODEEG_Images\0046.jpg	YN	Left	Yes	1.0121779000001	0	483394	234
945.169921875	1	decision	trialStart	3	140	20	foodImage.42	FOODEEG_Images\0438.jpg	YN	Left	Yes	0.577498099999502	0	483928	251
946.28125	2	decision	foodImageDisplay	3	140	20	foodImage.42	FOODEEG_Images\0438.jpg	YN	Left	Yes	0.577498099999502	0	484497	252
948.34375	0.577498099999502	decision	choicePhaseStart	3	140	20	foodImage.42	FOODEEG_Images\0438.jpg	YN	Left	Yes	0.577498099999502	0	485553	253
948.912109375	0	decision	response	3	140	20	foodImage.42	FOODEEG_Images\0438.jpg	YN	Left	Yes	0.577498099999502	0	485844	234
949.955078125	1	decision	trialStart	3	141	21	foodImage.49	FOODEEG_Images\0515.jpg	YN	Left	Yes	0.615688999998383	0	486378	251
951.009765625	2	decision	foodImageDisplay	3	141	21	foodImage.49	FOODEEG_Images\0515.jpg	YN	Left	Yes	0.615688999998383	0	486918	252
953.072265625	0.615688999998383	decision	choicePhaseStart	3	141	21	foodImage.49	FOODEEG_Images\0515.jpg	YN	Left	Yes	0.615688999998383	0	487974	253
953.6796875	0	decision	response	3	141	21	foodImage.49	FOODEEG_Images\0515.jpg	YN	Left	Yes	0.615688999998383	0	488285	234
954.720703125	1	health	trialStart	3	142	22	foodImage.20	FOODEEG_Images\0226.jpg	YN	Right	No	2.27937019999808	0	488818	251
955.763671875	2	health	foodImageDisplay	3	142	22	foodImage.20	FOODEEG_Images\0226.jpg	YN	Right	No	2.27937019999808	0	489352	252
957.830078125	2.27937019999808	health	choicePhaseStart	3	142	22	foodImage.20	FOODEEG_Images\0226.jpg	YN	Right	No	2.27937019999808	0	490410	253
960.103515625	0	health	response	3	142	22	foodImage.20	FOODEEG_Images\0226.jpg	YN	Right	No	2.27937019999808	0	491574	235
961.146484375	1	decision	trialStart	3	143	23	foodImage.50	FOODEEG_Images\0529.jpg	YN	Left	Yes	0.624979199998052	0	492108	251
962.224609375	2	decision	foodImageDisplay	3	143	23	foodImage.50	FOODEEG_Images\0529.jpg	YN	Left	Yes	0.624979199998052	0	492660	252
964.287109375	0.624979199998052	decision	choicePhaseStart	3	143	23	foodImage.50	FOODEEG_Images\0529.jpg	YN	Left	Yes	0.624979199998052	0	493716	253
964.90234375	0	decision	response	3	143	23	foodImage.50	FOODEEG_Images\0529.jpg	YN	Left	Yes	0.624979199998052	0	494031	234
965.9453125	1	taste	trialStart	3	144	24	foodImage.105	FOODEEG_Images\0913.jpg	NY	Left	No	1.23879609999858	0	494565	251
966.994140625	2	taste	foodImageDisplay	3	144	24	foodImage.105	FOODEEG_Images\0913.jpg	NY	Left	No	1.23879609999858	0	495102	252
969.056640625	1.23879609999858	taste	choicePhaseStart	3	144	24	foodImage.105	FOODEEG_Images\0913.jpg	NY	Left	No	1.23879609999858	0	496158	253
970.287109375	0	taste	response	3	144	24	foodImage.105	FOODEEG_Images\0913.jpg	NY	Left	No	1.23879609999858	0	496788	234
971.330078125	1	health	trialStart	3	145	25	foodImage.2	FOODEEG_Images\0028.jpg	YN	Right	No	0.779863699997804	0	497322	251
972.37109375	2	health	foodImageDisplay	3	145	25	foodImage.2	FOODEEG_Images\0028.jpg	YN	Right	No	0.779863699997804	0	497855	252
974.435546875	0.779863699997804	health	choicePhaseStart	3	145	25	foodImage.2	FOODEEG_Images\0028.jpg	YN	Right	No	0.779863699997804	0	498912	253
975.20703125	0	health	response	3	145	25	foodImage.2	FOODEEG_Images\0028.jpg	YN	Right	No	0.779863699997804	0	499307	235
976.248046875	1	decision	trialStart	3	146	26	foodImage.31	FOODEEG_Images\0294.jpg	NY	Left	No	0.641847500002768	0	499840	251
977.291015625	2	decision	foodImageDisplay	3	146	26	foodImage.31	FOODEEG_Images\0294.jpg	NY	Left	No	0.641847500002768	0	500374	252
979.357421875	0.641847500002768	decision	choicePhaseStart	3	146	26	foodImage.31	FOODEEG_Images\0294.jpg	NY	Left	No	0.641847500002768	0	501432	253
979.990234375	0	decision	response	3	146	26	foodImage.31	FOODEEG_Images\0294.jpg	NY	Left	No	0.641847500002768	0	501756	234
981.03125	1	taste	trialStart	3	147	27	foodImage.82	FOODEEG_Images\0805.jpg	NY	Right	Yes	1.17391670000143	0	502289	251
982.08984375	2	taste	foodImageDisplay	3	147	27	foodImage.82	FOODEEG_Images\0805.jpg	NY	Right	Yes	1.17391670000143	0	502831	252
984.15234375	1.17391670000143	taste	choicePhaseStart	3	147	27	foodImage.82	FOODEEG_Images\0805.jpg	NY	Right	Yes	1.17391670000143	0	503887	253
985.318359375	0	taste	response	3	147	27	foodImage.82	FOODEEG_Images\0805.jpg	NY	Right	Yes	1.17391670000143	0	504484	235
986.361328125	1	taste	trialStart	3	148	28	foodImage.29	FOODEEG_Images\0278.jpg	NY	Right	Yes	1.11386019999918	0	505018	251
987.4140625	2	taste	foodImageDisplay	3	148	28	foodImage.29	FOODEEG_Images\0278.jpg	NY	Right	Yes	1.11386019999918	0	505557	252
989.4765625	1.11386019999918	taste	choicePhaseStart	3	148	28	foodImage.29	FOODEEG_Images\0278.jpg	NY	Right	Yes	1.11386019999918	0	506613	253
990.58203125	0	taste	response	3	148	28	foodImage.29	FOODEEG_Images\0278.jpg	NY	Right	Yes	1.11386019999918	0	507179	235
991.625	1	taste	trialStart	3	149	29	foodImage.75	FOODEEG_Images\0763.jpg	YN	Left	Yes	0.748607800000173	0	507713	251
992.67578125	2	taste	foodImageDisplay	3	149	29	foodImage.75	FOODEEG_Images\0763.jpg	YN	Left	Yes	0.748607800000173	0	508251	252
994.73828125	0.748607800000173	taste	choicePhaseStart	3	149	29	foodImage.75	FOODEEG_Images\0763.jpg	YN	Left	Yes	0.748607800000173	0	509307	253
995.478515625	0	taste	response	3	149	29	foodImage.75	FOODEEG_Images\0763.jpg	YN	Left	Yes	0.748607800000173	0	509686	234
996.517578125	1	decision	trialStart	3	150	30	foodImage.59	FOODEEG_Images\0607.jpg	NY	Right	Yes	1.27543049999804	0	510218	251
997.587890625	2	decision	foodImageDisplay	3	150	30	foodImage.59	FOODEEG_Images\0607.jpg	NY	Right	Yes	1.27543049999804	0	510766	252
999.65234375	1.27543049999804	decision	choicePhaseStart	3	150	30	foodImage.59	FOODEEG_Images\0607.jpg	NY	Right	Yes	1.27543049999804	0	511823	253
1000.91796875	0	decision	response	3	150	30	foodImage.59	FOODEEG_Images\0607.jpg	NY	Right	Yes	1.27543049999804	0	512471	235
1001.9609375	1	taste	trialStart	3	151	31	foodImage.8	FOODEEG_Images\0136.jpg	YN	Right	No	1.700965	0	513005	251
1003.001953125	2	taste	foodImageDisplay	3	151	31	foodImage.8	FOODEEG_Images\0136.jpg	YN	Right	No	1.700965	0	513538	252
1005.06640625	1.700965	taste	choicePhaseStart	3	151	31	foodImage.8	FOODEEG_Images\0136.jpg	YN	Right	No	1.700965	0	514595	253
1006.7578125	0	taste	response	3	151	31	foodImage.8	FOODEEG_Images\0136.jpg	YN	Right	No	1.700965	0	515461	235
1007.80078125	1	decision	trialStart	3	152	32	foodImage.65	FOODEEG_Images\0658.jpg	YN	Right	No	1.83823420000044	0	515995	251
1008.841796875	2	decision	foodImageDisplay	3	152	32	foodImage.65	FOODEEG_Images\0658.jpg	YN	Right	No	1.83823420000044	0	516528	252
1010.904296875	1.83823420000044	decision	choicePhaseStart	3	152	32	foodImage.65	FOODEEG_Images\0658.jpg	YN	Right	No	1.83823420000044	0	517584	253
1012.732421875	0	decision	response	3	152	32	foodImage.65	FOODEEG_Images\0658.jpg	YN	Right	No	1.83823420000044	0	518520	235
1013.775390625	1	decision	trialStart	3	153	33	foodImage.51	FOODEEG_Images\0536.jpg	NY	Right	Yes	0.901366300000518	0	519054	251
1014.841796875	2	decision	foodImageDisplay	3	153	33	foodImage.51	FOODEEG_Images\0536.jpg	NY	Right	Yes	0.901366300000518	0	519600	252
1016.904296875	0.901366300000518	decision	choicePhaseStart	3	153	33	foodImage.51	FOODEEG_Images\0536.jpg	NY	Right	Yes	0.901366300000518	0	520656	253
1017.796875	0	decision	response	3	153	33	foodImage.51	FOODEEG_Images\0536.jpg	NY	Right	Yes	0.901366300000518	0	521113	235
1018.83984375	1	taste	trialStart	3	154	34	foodImage.83	FOODEEG_Images\0827.jpg	YN	Left	Yes	0.645955800002412	0	521647	251
1019.912109375	2	taste	foodImageDisplay	3	154	34	foodImage.83	FOODEEG_Images\0827.jpg	YN	Left	Yes	0.645955800002412	0	522196	252
1021.9765625	0.645955800002412	taste	choicePhaseStart	3	154	34	foodImage.83	FOODEEG_Images\0827.jpg	YN	Left	Yes	0.645955800002412	0	523253	253
1022.61328125	0	taste	response	3	154	34	foodImage.83	FOODEEG_Images\0827.jpg	YN	Left	Yes	0.645955800002412	0	523579	234
1023.65625	1	health	trialStart	3	155	35	foodImage.41	FOODEEG_Images\0409.jpg	YN	Left	Yes	0.774495300000126	0	524113	251
1024.705078125	2	health	foodImageDisplay	3	155	35	foodImage.41	FOODEEG_Images\0409.jpg	YN	Left	Yes	0.774495300000126	0	524650	252
1026.767578125	0.774495300000126	health	choicePhaseStart	3	155	35	foodImage.41	FOODEEG_Images\0409.jpg	YN	Left	Yes	0.774495300000126	0	525706	253
1027.533203125	0	health	response	3	155	35	foodImage.41	FOODEEG_Images\0409.jpg	YN	Left	Yes	0.774495300000126	0	526098	234
1028.576171875	1	health	trialStart	3	156	36	foodImage.7	FOODEEG_Images\0116.jpg	NY	Left	No	0.999427199996717	0	526632	251
1029.638671875	2	health	foodImageDisplay	3	156	36	foodImage.7	FOODEEG_Images\0116.jpg	NY	Left	No	0.999427199996717	0	527176	252
1031.703125	0.999427199996717	health	choicePhaseStart	3	156	36	foodImage.7	FOODEEG_Images\0116.jpg	NY	Left	No	0.999427199996717	0	528233	253
1032.693359375	0	health	response	3	156	36	foodImage.7	FOODEEG_Images\0116.jpg	NY	Left	No	0.999427199996717	0	528740	234
1033.734375	1	health	trialStart	3	157	37	foodImage.25	FOODEEG_Images\0261.jpg	YN	Left	Yes	0.786339899997984	0	529273	251
1034.796875	2	health	foodImageDisplay	3	157	37	foodImage.25	FOODEEG_Images\0261.jpg	YN	Left	Yes	0.786339899997984	0	529817	252
1036.859375	0.786339899997984	health	choicePhaseStart	3	157	37	foodImage.25	FOODEEG_Images\0261.jpg	YN	Left	Yes	0.786339899997984	0	530873	253
1037.63671875	0	health	response	3	157	37	foodImage.25	FOODEEG_Images\0261.jpg	YN	Left	Yes	0.786339899997984	0	531271	234
1038.677734375	1	health	trialStart	3	158	38	foodImage.28	FOODEEG_Images\0273.jpg	YN	Left	Yes	0.609054100001231	0	531804	251
1039.740234375	2	health	foodImageDisplay	3	158	38	foodImage.28	FOODEEG_Images\0273.jpg	YN	Left	Yes	0.609054100001231	0	532348	252
1041.8046875	0.609054100001231	health	choicePhaseStart	3	158	38	foodImage.28	FOODEEG_Images\0273.jpg	YN	Left	Yes	0.609054100001231	0	533405	253
1042.404296875	0	health	response	3	158	38	foodImage.28	FOODEEG_Images\0273.jpg	YN	Left	Yes	0.609054100001231	0	533712	234
1043.447265625	1	taste	trialStart	3	159	39	foodImage.69	FOODEEG_Images\0693.jpg	YN	Left	Yes	1.38191969999752	0	534246	251
1044.501953125	2	taste	foodImageDisplay	3	159	39	foodImage.69	FOODEEG_Images\0693.jpg	YN	Left	Yes	1.38191969999752	0	534786	252
1046.56640625	1.38191969999752	taste	choicePhaseStart	3	159	39	foodImage.69	FOODEEG_Images\0693.jpg	YN	Left	Yes	1.38191969999752	0	535843	253
1047.939453125	0	taste	response	3	159	39	foodImage.69	FOODEEG_Images\0693.jpg	YN	Left	Yes	1.38191969999752	0	536546	234
1048.982421875	1	health	trialStart	3	160	40	foodImage.15	FOODEEG_Images\0189.jpg	NY	Left	No	1.02270080000017	0	537080	251
1050.0625	2	health	foodImageDisplay	3	160	40	foodImage.15	FOODEEG_Images\0189.jpg	NY	Left	No	1.02270080000017	0	537633	252
1052.126953125	1.02270080000017	health	choicePhaseStart	3	160	40	foodImage.15	FOODEEG_Images\0189.jpg	NY	Left	No	1.02270080000017	0	538690	253
1053.140625	0	health	response	3	160	40	foodImage.15	FOODEEG_Images\0189.jpg	NY	Left	No	1.02270080000017	0	539209	234
1054.181640625	1	health	trialStart	3	161	41	foodImage.111	FOODEEG_Images\0919.jpg	NY	Left	No	0.971208499999193	0	539742	251
1055.232421875	2	health	foodImageDisplay	3	161	41	foodImage.111	FOODEEG_Images\0919.jpg	NY	Left	No	0.971208499999193	0	540280	252
1057.294921875	0.971208499999193	health	choicePhaseStart	3	161	41	foodImage.111	FOODEEG_Images\0919.jpg	NY	Left	No	0.971208499999193	0	541336	253
1058.259765625	0	health	response	3	161	41	foodImage.111	FOODEEG_Images\0919.jpg	NY	Left	No	0.971208499999193	0	541830	234
1059.302734375	1	decision	trialStart	3	162	42	foodImage.52	FOODEEG_Images\0539.jpg	YN	Left	Yes	0.770873499997833	0	542364	251
1060.36328125	2	decision	foodImageDisplay	3	162	42	foodImage.52	FOODEEG_Images\0539.jpg	YN	Left	Yes	0.770873499997833	0	542907	252
1062.42578125	0.770873499997833	decision	choicePhaseStart	3	162	42	foodImage.52	FOODEEG_Images\0539.jpg	YN	Left	Yes	0.770873499997833	0	543963	253
1063.1875	0	decision	response	3	162	42	foodImage.52	FOODEEG_Images\0539.jpg	YN	Left	Yes	0.770873499997833	0	544353	234
1064.23046875	1	health	trialStart	3	163	43	foodImage.107	FOODEEG_Images\0915.jpg	NY	Left	No	1.07612950000112	0	544887	251
1065.279296875	2	health	foodImageDisplay	3	163	43	foodImage.107	FOODEEG_Images\0915.jpg	NY	Left	No	1.07612950000112	0	545424	252
1067.34375	1.07612950000112	health	choicePhaseStart	3	163	43	foodImage.107	FOODEEG_Images\0915.jpg	NY	Left	No	1.07612950000112	0	546481	253
1068.412109375	0	health	response	3	163	43	foodImage.107	FOODEEG_Images\0915.jpg	NY	Left	No	1.07612950000112	0	547028	234
1069.453125	1	decision	trialStart	3	164	44	foodImage.61	FOODEEG_Images\0640.jpg	NY	Right	Yes	1.07195590000265	0	547561	251
1070.5078125	2	decision	foodImageDisplay	3	164	44	foodImage.61	FOODEEG_Images\0640.jpg	NY	Right	Yes	1.07195590000265	0	548101	252
1072.572265625	1.07195590000265	decision	choicePhaseStart	3	164	44	foodImage.61	FOODEEG_Images\0640.jpg	NY	Right	Yes	1.07195590000265	0	549158	253
1073.634765625	0	decision	response	3	164	44	foodImage.61	FOODEEG_Images\0640.jpg	NY	Right	Yes	1.07195590000265	0	549702	235
1074.68359375	1	taste	trialStart	3	165	45	foodImage.15	FOODEEG_Images\0189.jpg	YN	Right	No	0.905263800003013	0	550239	251
1075.740234375	2	taste	foodImageDisplay	3	165	45	foodImage.15	FOODEEG_Images\0189.jpg	YN	Right	No	0.905263800003013	0	550780	252
1077.8046875	0.905263800003013	taste	choicePhaseStart	3	165	45	foodImage.15	FOODEEG_Images\0189.jpg	YN	Right	No	0.905263800003013	0	551837	253
1078.69921875	0	taste	response	3	165	45	foodImage.15	FOODEEG_Images\0189.jpg	YN	Right	No	0.905263800003013	0	552295	235
1079.740234375	1	health	trialStart	3	166	46	foodImage.10	FOODEEG_Images\0145.jpg	YN	Left	Yes	1.9925602000003	0	552828	251
1080.8046875	2	health	foodImageDisplay	3	166	46	foodImage.10	FOODEEG_Images\0145.jpg	YN	Left	Yes	1.9925602000003	0	553373	252
1082.8671875	1.9925602000003	health	choicePhaseStart	3	166	46	foodImage.10	FOODEEG_Images\0145.jpg	YN	Left	Yes	1.9925602000003	0	554429	253
1084.8515625	0	health	response	3	166	46	foodImage.10	FOODEEG_Images\0145.jpg	YN	Left	Yes	1.9925602000003	0	555445	234
1085.89453125	1	decision	trialStart	3	167	47	foodImage.26	FOODEEG_Images\0262.jpg	NY	Right	Yes	0.737030000000232	0	555979	251
1086.955078125	2	decision	foodImageDisplay	3	167	47	foodImage.26	FOODEEG_Images\0262.jpg	NY	Right	Yes	0.737030000000232	0	556522	252
1089.01953125	0.737030000000232	decision	choicePhaseStart	3	167	47	foodImage.26	FOODEEG_Images\0262.jpg	NY	Right	Yes	0.737030000000232	0	557579	253
1089.74609375	0	decision	response	3	167	47	foodImage.26	FOODEEG_Images\0262.jpg	NY	Right	Yes	0.737030000000232	0	557951	235
1090.7890625	1	taste	trialStart	3	168	48	foodImage.81	FOODEEG_Images\0797.jpg	NY	Right	Yes	1.15365280000333	0	558485	251
1091.873046875	2	taste	foodImageDisplay	3	168	48	foodImage.81	FOODEEG_Images\0797.jpg	NY	Right	Yes	1.15365280000333	0	559040	252
1093.9375	1.15365280000333	taste	choicePhaseStart	3	168	48	foodImage.81	FOODEEG_Images\0797.jpg	NY	Right	Yes	1.15365280000333	0	560097	253
1095.08203125	0	taste	response	3	168	48	foodImage.81	FOODEEG_Images\0797.jpg	NY	Right	Yes	1.15365280000333	0	560683	235
1096.125	1	decision	trialStart	3	169	49	foodImage.114	FOODEEG_Images\0922.jpg	YN	Right	No	0.751512899998488	0	561217	251
1097.1640625	2	decision	foodImageDisplay	3	169	49	foodImage.114	FOODEEG_Images\0922.jpg	YN	Right	No	0.751512899998488	0	561749	252
1099.228515625	0.751512899998488	decision	choicePhaseStart	3	169	49	foodImage.114	FOODEEG_Images\0922.jpg	YN	Right	No	0.751512899998488	0	562806	253
1099.970703125	0	decision	response	3	169	49	foodImage.114	FOODEEG_Images\0922.jpg	YN	Right	No	0.751512899998488	0	563186	235
1101.013671875	1	taste	trialStart	3	170	50	foodImage.19	FOODEEG_Images\0225.jpg	NY	Right	Yes	1.56693019999875	0	563720	251
1102.07421875	2	taste	foodImageDisplay	3	170	50	foodImage.19	FOODEEG_Images\0225.jpg	NY	Right	Yes	1.56693019999875	0	564263	252
1104.13671875	1.56693019999875	taste	choicePhaseStart	3	170	50	foodImage.19	FOODEEG_Images\0225.jpg	NY	Right	Yes	1.56693019999875	0	565319	253
1105.697265625	0	taste	response	3	170	50	foodImage.19	FOODEEG_Images\0225.jpg	NY	Right	Yes	1.56693019999875	0	566118	235
1106.7421875	1	health	trialStart	3	171	51	foodImage.66	FOODEEG_Images\0676.jpg	YN	Right	No	0.680212600000232	0	566653	251
1107.796875	2	health	foodImageDisplay	3	171	51	foodImage.66	FOODEEG_Images\0676.jpg	YN	Right	No	0.680212600000232	0	567193	252
1109.859375	0.680212600000232	health	choicePhaseStart	3	171	51	foodImage.66	FOODEEG_Images\0676.jpg	YN	Right	No	0.680212600000232	0	568249	253
1110.529296875	0	health	response	3	171	51	foodImage.66	FOODEEG_Images\0676.jpg	YN	Right	No	0.680212600000232	0	568592	235
1111.572265625	1	health	trialStart	3	172	52	foodImage.113	FOODEEG_Images\0921.jpg	YN	Left	Yes	1.05521010000302	0	569126	251
1112.609375	2	health	foodImageDisplay	3	172	52	foodImage.113	FOODEEG_Images\0921.jpg	YN	Left	Yes	1.05521010000302	0	569657	252
1114.673828125	1.05521010000302	health	choicePhaseStart	3	172	52	foodImage.113	FOODEEG_Images\0921.jpg	YN	Left	Yes	1.05521010000302	0	570714	253
1115.72265625	0	health	response	3	172	52	foodImage.113	FOODEEG_Images\0921.jpg	YN	Left	Yes	1.05521010000302	0	571251	234
1116.767578125	1	taste	trialStart	3	173	53	foodImage.68	FOODEEG_Images\0685.jpg	YN	Left	Yes	0.679753199998231	0	571786	251
1117.84375	2	taste	foodImageDisplay	3	173	53	foodImage.68	FOODEEG_Images\0685.jpg	YN	Left	Yes	0.679753199998231	0	572337	252
1119.908203125	0.679753199998231	taste	choicePhaseStart	3	173	53	foodImage.68	FOODEEG_Images\0685.jpg	YN	Left	Yes	0.679753199998231	0	573394	253
1120.578125	0	taste	response	3	173	53	foodImage.68	FOODEEG_Images\0685.jpg	YN	Left	Yes	0.679753199998231	0	573737	234
1121.62109375	1	health	trialStart	3	174	54	foodImage.73	FOODEEG_Images\0717.jpg	YN	Left	Yes	2.4002756000009	0	574271	251
1122.681640625	2	health	foodImageDisplay	3	174	54	foodImage.73	FOODEEG_Images\0717.jpg	YN	Left	Yes	2.4002756000009	0	574814	252
1124.744140625	2.4002756000009	health	choicePhaseStart	3	174	54	foodImage.73	FOODEEG_Images\0717.jpg	YN	Left	Yes	2.4002756000009	0	575870	253
1127.13671875	0	health	response	3	174	54	foodImage.73	FOODEEG_Images\0717.jpg	YN	Left	Yes	2.4002756000009	0	577095	234
1128.1796875	1	health	trialStart	3	175	55	foodImage.96	FOODEEG_Images\0904.jpg	NY	Right	Yes	0.893682900001295	0	577629	251
1129.22265625	2	health	foodImageDisplay	3	175	55	foodImage.96	FOODEEG_Images\0904.jpg	NY	Right	Yes	0.893682900001295	0	578163	252
1131.28515625	0.893682900001295	health	choicePhaseStart	3	175	55	foodImage.96	FOODEEG_Images\0904.jpg	NY	Right	Yes	0.893682900001295	0	579219	253
1132.169921875	0	health	response	3	175	55	foodImage.96	FOODEEG_Images\0904.jpg	NY	Right	Yes	0.893682900001295	0	579672	235
1133.2109375	1	health	trialStart	3	176	56	foodImage.89	FOODEEG_Images\0881.jpg	YN	Left	Yes	0.834979999999632	0	580205	251
1134.271484375	2	health	foodImageDisplay	3	176	56	foodImage.89	FOODEEG_Images\0881.jpg	YN	Left	Yes	0.834979999999632	0	580748	252
1136.3359375	0.834979999999632	health	choicePhaseStart	3	176	56	foodImage.89	FOODEEG_Images\0881.jpg	YN	Left	Yes	0.834979999999632	0	581805	253
1137.162109375	0	health	response	3	176	56	foodImage.89	FOODEEG_Images\0881.jpg	YN	Left	Yes	0.834979999999632	0	582228	234
1138.203125	1	health	trialStart	3	177	57	foodImage.45	FOODEEG_Images\0478.jpg	YN	Left	Yes	0.486007900002733	0	582761	251
1139.25	2	health	foodImageDisplay	3	177	57	foodImage.45	FOODEEG_Images\0478.jpg	YN	Left	Yes	0.486007900002733	0	583297	252
1141.314453125	0.486007900002733	health	choicePhaseStart	3	177	57	foodImage.45	FOODEEG_Images\0478.jpg	YN	Left	Yes	0.486007900002733	0	584354	253
1141.79296875	0	health	response	3	177	57	foodImage.45	FOODEEG_Images\0478.jpg	YN	Left	Yes	0.486007900002733	0	584599	234
1142.8359375	1	health	trialStart	3	178	58	foodImage.78	FOODEEG_Images\0787.jpg	NY	Right	Yes	0.72891239999808	0	585133	251
1143.90234375	2	health	foodImageDisplay	3	178	58	foodImage.78	FOODEEG_Images\0787.jpg	NY	Right	Yes	0.72891239999808	0	585679	252
1145.966796875	0.72891239999808	health	choicePhaseStart	3	178	58	foodImage.78	FOODEEG_Images\0787.jpg	NY	Right	Yes	0.72891239999808	0	586736	253
1146.689453125	0	health	response	3	178	58	foodImage.78	FOODEEG_Images\0787.jpg	NY	Right	Yes	0.72891239999808	0	587106	235
1147.732421875	1	decision	trialStart	3	179	59	foodImage.6	FOODEEG_Images\0113.jpg	NY	Left	No	0.921191000001272	0	587640	251
1148.79296875	2	decision	foodImageDisplay	3	179	59	foodImage.6	FOODEEG_Images\0113.jpg	NY	Left	No	0.921191000001272	0	588183	252
1150.857421875	0.921191000001272	decision	choicePhaseStart	3	179	59	foodImage.6	FOODEEG_Images\0113.jpg	NY	Left	No	0.921191000001272	0	589240	253
1151.76953125	0	decision	response	3	179	59	foodImage.6	FOODEEG_Images\0113.jpg	NY	Left	No	0.921191000001272	0	589707	234
1152.810546875	1	health	trialStart	3	180	60	foodImage.44	FOODEEG_Images\0459.jpg	YN	Right	No	1.07625370000096	0	590240	251
1153.869140625	2	health	foodImageDisplay	3	180	60	foodImage.44	FOODEEG_Images\0459.jpg	YN	Right	No	1.07625370000096	0	590782	252
1155.93359375	1.07625370000096	health	choicePhaseStart	3	180	60	foodImage.44	FOODEEG_Images\0459.jpg	YN	Right	No	1.07625370000096	0	591839	253
1157	0	health	response	3	180	60	foodImage.44	FOODEEG_Images\0459.jpg	YN	Right	No	1.07625370000096	0	592385	235
1159.041015625	20.798828125	n/a	blockEnd	n/a	n/a	n/a	n/a	n/a	n/a	n/a	n/a	n/a	n/a	593430	254
1179.83984375	2	n/a	blockStart	4	n/a	n/a	n/a	n/a	n/a	n/a	n/a	n/a	n/a	604079	250
1181.873046875	1	taste	trialStart	4	181	1	foodImage.34	FOODEEG_Images\0339.jpg	YN	Right	No	0.67615669999941	0	605120	251
1182.931640625	2	taste	foodImageDisplay	4	181	1	foodImage.34	FOODEEG_Images\0339.jpg	YN	Right	No	0.67615669999941	0	605662	252
1184.99609375	0.67615669999941	taste	choicePhaseStart	4	181	1	foodImage.34	FOODEEG_Images\0339.jpg	YN	Right	No	0.67615669999941	0	606719	253
1185.6640625	0	taste	response	4	181	1	foodImage.34	FOODEEG_Images\0339.jpg	YN	Right	No	0.67615669999941	0	607061	235
1186.70703125	1	taste	trialStart	4	182	2	foodImage.23	FOODEEG_Images\0244.jpg	YN	Right	No	0.461899699999776	0	607595	251
1187.767578125	2	taste	foodImageDisplay	4	182	2	foodImage.23	FOODEEG_Images\0244.jpg	YN	Right	No	0.461899699999776	0	608138	252
1189.83203125	0.461899699999776	taste	choicePhaseStart	4	182	2	foodImage.23	FOODEEG_Images\0244.jpg	YN	Right	No	0.461899699999776	0	609195	253
1190.287109375	0	taste	response	4	182	2	foodImage.23	FOODEEG_Images\0244.jpg	YN	Right	No	0.461899699999776	0	609428	235
1191.330078125	1	health	trialStart	4	183	3	foodImage.12	FOODEEG_Images\0181.jpg	YN	Left	Yes	0.955708999998024	0	609962	251
1192.373046875	2	health	foodImageDisplay	4	183	3	foodImage.12	FOODEEG_Images\0181.jpg	YN	Left	Yes	0.955708999998024	0	610496	252
1194.435546875	0.955708999998024	health	choicePhaseStart	4	183	3	foodImage.12	FOODEEG_Images\0181.jpg	YN	Left	Yes	0.955708999998024	0	611552	253
1195.3828125	0	health	response	4	183	3	foodImage.12	FOODEEG_Images\0181.jpg	YN	Left	Yes	0.955708999998024	0	612037	234
1196.42578125	1	decision	trialStart	4	184	4	foodImage.106	FOODEEG_Images\0914.jpg	NY	Left	No	0.693947699997807	0	612571	251
1197.46484375	2	decision	foodImageDisplay	4	184	4	foodImage.106	FOODEEG_Images\0914.jpg	NY	Left	No	0.693947699997807	0	613103	252
1199.52734375	0.693947699997807	decision	choicePhaseStart	4	184	4	foodImage.106	FOODEEG_Images\0914.jpg	NY	Left	No	0.693947699997807	0	614159	253
1200.21484375	0	decision	response	4	184	4	foodImage.106	FOODEEG_Images\0914.jpg	NY	Left	No	0.693947699997807	0	614511	234
1201.2578125	1	health	trialStart	4	185	5	foodImage.52	FOODEEG_Images\0539.jpg	NY	Right	Yes	0.918051500000729	0	615045	251
1202.314453125	2	health	foodImageDisplay	4	185	5	foodImage.52	FOODEEG_Images\0539.jpg	NY	Right	Yes	0.918051500000729	0	615586	252
1204.37890625	0.918051500000729	health	choicePhaseStart	4	185	5	foodImage.52	FOODEEG_Images\0539.jpg	NY	Right	Yes	0.918051500000729	0	616643	253
1205.287109375	0	health	response	4	185	5	foodImage.52	FOODEEG_Images\0539.jpg	NY	Right	Yes	0.918051500000729	0	617108	235
1206.330078125	1	health	trialStart	4	186	6	foodImage.83	FOODEEG_Images\0827.jpg	NY	Right	Yes	0.781448199999431	0	617642	251
1207.40234375	2	health	foodImageDisplay	4	186	6	foodImage.83	FOODEEG_Images\0827.jpg	NY	Right	Yes	0.781448199999431	0	618191	252
1209.466796875	0.781448199999431	health	choicePhaseStart	4	186	6	foodImage.83	FOODEEG_Images\0827.jpg	NY	Right	Yes	0.781448199999431	0	619248	253
1210.23828125	0	health	response	4	186	6	foodImage.83	FOODEEG_Images\0827.jpg	NY	Right	Yes	0.781448199999431	0	619643	235
1211.28125	1	health	trialStart	4	187	7	foodImage.88	FOODEEG_Images\0878.jpg	YN	Right	No	1.23806010000044	0	620177	251
1212.337890625	2	health	foodImageDisplay	4	187	7	foodImage.88	FOODEEG_Images\0878.jpg	YN	Right	No	1.23806010000044	0	620718	252
1214.40234375	1.23806010000044	health	choicePhaseStart	4	187	7	foodImage.88	FOODEEG_Images\0878.jpg	YN	Right	No	1.23806010000044	0	621775	253
1215.630859375	0	health	response	4	187	7	foodImage.88	FOODEEG_Images\0878.jpg	YN	Right	No	1.23806010000044	0	622404	235
1216.673828125	1	decision	trialStart	4	188	8	foodImage.10	FOODEEG_Images\0145.jpg	YN	Left	Yes	0.741299400000571	0	622938	251
1217.73828125	2	decision	foodImageDisplay	4	188	8	foodImage.10	FOODEEG_Images\0145.jpg	YN	Left	Yes	0.741299400000571	0	623483	252
1219.802734375	0.741299400000571	decision	choicePhaseStart	4	188	8	foodImage.10	FOODEEG_Images\0145.jpg	YN	Left	Yes	0.741299400000571	0	624540	253
1220.53515625	0	decision	response	4	188	8	foodImage.10	FOODEEG_Images\0145.jpg	YN	Left	Yes	0.741299400000571	0	624915	234
1221.576171875	1	decision	trialStart	4	189	9	foodImage.1	FOODEEG_Images\0004.jpg	YN	Left	Yes	0.615392600000632	0	625448	251
1222.6171875	2	decision	foodImageDisplay	4	189	9	foodImage.1	FOODEEG_Images\0004.jpg	YN	Left	Yes	0.615392600000632	0	625981	252
1224.681640625	0.615392600000632	decision	choicePhaseStart	4	189	9	foodImage.1	FOODEEG_Images\0004.jpg	YN	Left	Yes	0.615392600000632	0	627038	253
1225.287109375	0	decision	response	4	189	9	foodImage.1	FOODEEG_Images\0004.jpg	YN	Left	Yes	0.615392600000632	0	627348	234
1226.326171875	1	taste	trialStart	4	190	10	foodImage.51	FOODEEG_Images\0536.jpg	YN	Left	Yes	0.648835299998609	0	627880	251
1227.369140625	2	taste	foodImageDisplay	4	190	10	foodImage.51	FOODEEG_Images\0536.jpg	YN	Left	Yes	0.648835299998609	0	628414	252
1229.431640625	0.648835299998609	taste	choicePhaseStart	4	190	10	foodImage.51	FOODEEG_Images\0536.jpg	YN	Left	Yes	0.648835299998609	0	629470	253
1230.0703125	0	taste	response	4	190	10	foodImage.51	FOODEEG_Images\0536.jpg	YN	Left	Yes	0.648835299998609	0	629797	234
1231.11328125	1	decision	trialStart	4	191	11	foodImage.72	FOODEEG_Images\0714.jpg	YN	Left	Yes	1.22041869999885	0	630331	251
1232.1640625	2	decision	foodImageDisplay	4	191	11	foodImage.72	FOODEEG_Images\0714.jpg	YN	Left	Yes	1.22041869999885	0	630869	252
1234.2265625	1.22041869999885	decision	choicePhaseStart	4	191	11	foodImage.72	FOODEEG_Images\0714.jpg	YN	Left	Yes	1.22041869999885	0	631925	253
1235.4375	0	decision	response	4	191	11	foodImage.72	FOODEEG_Images\0714.jpg	YN	Left	Yes	1.22041869999885	0	632545	234
1236.478515625	1	taste	trialStart	4	192	12	foodImage.30	FOODEEG_Images\0282.jpg	YN	Left	Yes	0.785238699998445	0	633078	251
1237.51953125	2	taste	foodImageDisplay	4	192	12	foodImage.30	FOODEEG_Images\0282.jpg	YN	Left	Yes	0.785238699998445	0	633611	252
1239.58203125	0.785238699998445	taste	choicePhaseStart	4	192	12	foodImage.30	FOODEEG_Images\0282.jpg	YN	Left	Yes	0.785238699998445	0	634667	253
1240.357421875	0	taste	response	4	192	12	foodImage.30	FOODEEG_Images\0282.jpg	YN	Left	Yes	0.785238699998445	0	635064	234
1241.40234375	1	decision	trialStart	4	193	13	foodImage.70	FOODEEG_Images\0705.jpg	YN	Left	Yes	1.36355579999872	0	635599	251
1242.466796875	2	decision	foodImageDisplay	4	193	13	foodImage.70	FOODEEG_Images\0705.jpg	YN	Left	Yes	1.36355579999872	0	636144	252
