onset	duration	trial_type	event_type	block	trial_total	trial_in_block	food_image_code	food_image_path	button_position	resp_position	resp_choice	choice_rt	resp_too_slow	sample	trigger
262.455078125	2	n/a	blockStart	1	n/a	n/a	n/a	n/a	n/a	n/a	n/a	n/a	n/a	134378	250
264.4921875	1	taste	trialStart	1	1	1	foodImage.118	FOODEEG_Images\0926.jpg	YN	Right	No	1.14973750000354	0	135421	251
265.537109375	2	taste	foodImageDisplay	1	1	1	foodImage.118	FOODEEG_Images\0926.jpg	YN	Right	No	1.14973750000354	0	135956	252
267.6015625	1.14973750000354	taste	choicePhaseStart	1	1	1	foodImage.118	FOODEEG_Images\0926.jpg	YN	Right	No	1.14973750000354	0	137013	253
268.74609375	0	taste	response	1	1	1	foodImage.118	FOODEEG_Images\0926.jpg	YN	Right	No	1.14973750000354	0	137599	235
269.837890625	1	health	trialStart	1	2	2	foodImage.1	FOODEEG_Images\0004.jpg	YN	Left	Yes	1.35836410001502	0	138158	251
270.8828125	2	health	foodImageDisplay	1	2	2	foodImage.1	FOODEEG_Images\0004.jpg	YN	Left	Yes	1.35836410001502	0	138693	252
272.947265625	1.35836410001502	health	choicePhaseStart	1	2	2	foodImage.1	FOODEEG_Images\0004.jpg	YN	Left	Yes	1.35836410001502	0	139750	253
274.296875	0	health	response	1	2	2	foodImage.1	FOODEEG_Images\0004.jpg	YN	Left	Yes	1.35836410001502	0	140441	234
275.3515625	1	taste	trialStart	1	3	3	foodImage.89	FOODEEG_Images\0881.jpg	NY	Right	Yes	0.781148899986874	0	140981	251
276.412109375	2	taste	foodImageDisplay	1	3	3	foodImage.89	FOODEEG_Images\0881.jpg	NY	Right	Yes	0.781148899986874	0	141524	252
278.474609375	0.781148899986874	taste	choicePhaseStart	1	3	3	foodImage.89	FOODEEG_Images\0881.jpg	NY	Right	Yes	0.781148899986874	0	142580	253
279.25	0	taste	response	1	3	3	foodImage.89	FOODEEG_Images\0881.jpg	NY	Right	Yes	0.781148899986874	0	142977	235
280.29296875	1	taste	trialStart	1	4	4	foodImage.100	FOODEEG_Images\0908.jpg	YN	Right	No	0.971599300013622	0	143511	251
281.33203125	2	taste	foodImageDisplay	1	4	4	foodImage.100	FOODEEG_Images\0908.jpg	YN	Right	No	0.971599300013622	0	144043	252
283.396484375	0.971599300013622	taste	choicePhaseStart	1	4	4	foodImage.100	FOODEEG_Images\0908.jpg	YN	Right	No	0.971599300013622	0	145100	253
284.361328125	0	taste	response	1	4	4	foodImage.100	FOODEEG_Images\0908.jpg	YN	Right	No	0.971599300013622	0	145594	235
285.40625	1	taste	trialStart	1	5	5	foodImage.25	FOODEEG_Images\0261.jpg	NY	Right	Yes	0.824072499992326	0	146129	251
286.455078125	2	taste	foodImageDisplay	1	5	5	foodImage.25	FOODEEG_Images\0261.jpg	NY	Right	Yes	0.824072499992326	0	146666	252
288.51953125	0.824072499992326	taste	choicePhaseStart	1	5	5	foodImage.25	FOODEEG_Images\0261.jpg	NY	Right	Yes	0.824072499992326	0	147723	253
289.3359375	0	taste	response	1	5	5	foodImage.25	FOODEEG_Images\0261.jpg	NY	Right	Yes	0.824072499992326	0	148141	235
290.390625	1	taste	trialStart	1	6	6	foodImage.64	FOODEEG_Images\0647.jpg	NY	Right	Yes	0.765340799989644	0	148681	251
291.451171875	2	taste	foodImageDisplay	1	6	6	foodImage.64	FOODEEG_Images\0647.jpg	NY	Right	Yes	0.765340799989644	0	149224	252
293.515625	0.765340799989644	taste	choicePhaseStart	1	6	6	foodImage.64	FOODEEG_Images\0647.jpg	NY	Right	Yes	0.765340799989644	0	150281	253
294.2734375	0	taste	response	1	6	6	foodImage.64	FOODEEG_Images\0647.jpg	NY	Right	Yes	0.765340799989644	0	150669	235
295.31640625	1	health	trialStart	1	7	7	foodImage.35	FOODEEG_Images\0350.jpg	YN	Left	Yes	1.53646150001441	0	151203	251
296.369140625	2	health	foodImageDisplay	1	7	7	foodImage.35	FOODEEG_Images\0350.jpg	YN	Left	Yes	1.53646150001441	0	151742	252
298.4375	1.53646150001441	health	choicePhaseStart	1	7	7	foodImage.35	FOODEEG_Images\0350.jpg	YN	Left	Yes	1.53646150001441	0	152801	253
299.966796875	0	health	response	1	7	7	foodImage.35	FOODEEG_Images\0350.jpg	YN	Left	Yes	1.53646150001441	0	153584	234
301.013671875	1	decision	trialStart	1	8	8	foodImage.23	FOODEEG_Images\0244.jpg	YN	Right	No	0.826750900014304	0	154120	251
302.0546875	2	decision	foodImageDisplay	1	8	8	foodImage.23	FOODEEG_Images\0244.jpg	YN	Right	No	0.826750900014304	0	154653	252
304.123046875	0.826750900014304	decision	choicePhaseStart	1	8	8	foodImage.23	FOODEEG_Images\0244.jpg	YN	Right	No	0.826750900014304	0	155712	253
304.943359375	0	decision	response	1	8	8	foodImage.23	FOODEEG_Images\0244.jpg	YN	Right	No	0.826750900014304	0	156132	235
305.986328125	1	health	trialStart	1	9	9	foodImage.27	FOODEEG_Images\0263.jpg	NY	Right	Yes	0.747822300007101	0	156666	251
307.048828125	2	health	foodImageDisplay	1	9	9	foodImage.27	FOODEEG_Images\0263.jpg	NY	Right	Yes	0.747822300007101	0	157210	252
309.11328125	0.747822300007101	health	choicePhaseStart	1	9	9	foodImage.27	FOODEEG_Images\0263.jpg	NY	Right	Yes	0.747822300007101	0	158267	253
309.85546875	0	health	response	1	9	9	foodImage.27	FOODEEG_Images\0263.jpg	NY	Right	Yes	0.747822300007101	0	158647	235
310.8984375	1	decision	trialStart	1	10	10	foodImage.90	FOODEEG_Images\0890.jpg	NY	Left	No	0.743154699972365	0	159181	251
311.958984375	2	decision	foodImageDisplay	1	10	10	foodImage.90	FOODEEG_Images\0890.jpg	NY	Left	No	0.743154699972365	0	159724	252
314.0234375	0.743154699972365	decision	choicePhaseStart	1	10	10	foodImage.90	FOODEEG_Images\0890.jpg	NY	Left	No	0.743154699972365	0	160781	253
314.759765625	0	decision	response	1	10	10	foodImage.90	FOODEEG_Images\0890.jpg	NY	Left	No	0.743154699972365	0	161158	234
315.802734375	1	health	trialStart	1	11	11	foodImage.93	FOODEEG_Images\0901.jpg	NY	Left	No	1.12598849998903	0	161692	251
316.84765625	2	health	foodImageDisplay	1	11	11	foodImage.93	FOODEEG_Images\0901.jpg	NY	Left	No	1.12598849998903	0	162227	252
318.919921875	1.12598849998903	health	choicePhaseStart	1	11	11	foodImage.93	FOODEEG_Images\0901.jpg	NY	Left	No	1.12598849998903	0	163288	253
320.0390625	0	health	response	1	11	11	foodImage.93	FOODEEG_Images\0901.jpg	NY	Left	No	1.12598849998903	0	163861	234
321.080078125	1	health	trialStart	1	12	12	foodImage.8	FOODEEG_Images\0136.jpg	NY	Left	No	1.11381660000188	0	164394	251
322.119140625	2	health	foodImageDisplay	1	12	12	foodImage.8	FOODEEG_Images\0136.jpg	NY	Left	No	1.11381660000188	0	164926	252
324.189453125	1.11381660000188	health	choicePhaseStart	1	12	12	foodImage.8	FOODEEG_Images\0136.jpg	NY	Left	No	1.11381660000188	0	165986	253
325.294921875	0	health	response	1	12	12	foodImage.8	FOODEEG_Images\0136.jpg	NY	Left	No	1.11381660000188	0	166552	234
326.33984375	1	health	trialStart	1	13	13	foodImage.46	FOODEEG_Images\0479.jpg	NY	Right	Yes	0.560881099983817	0	167087	251
327.3984375	2	health	foodImageDisplay	1	13	13	foodImage.46	FOODEEG_Images\0479.jpg	NY	Right	Yes	0.560881099983817	0	167629	252
329.462890625	0.560881099983817	health	choicePhaseStart	1	13	13	foodImage.46	FOODEEG_Images\0479.jpg	NY	Right	Yes	0.560881099983817	0	168686	253
330.013671875	0	health	response	1	13	13	foodImage.46	FOODEEG_Images\0479.jpg	NY	Right	Yes	0.560881099983817	0	168968	235
331.056640625	1	health	trialStart	1	14	14	foodImage.11	FOODEEG_Images\0180.jpg	YN	Left	Yes	0.931649200007087	0	169502	251
332.099609375	2	health	foodImageDisplay	1	14	14	foodImage.11	FOODEEG_Images\0180.jpg	YN	Left	Yes	0.931649200007087	0	170036	252
334.1640625	0.931649200007087	health	choicePhaseStart	1	14	14	foodImage.11	FOODEEG_Images\0180.jpg	YN	Left	Yes	0.931649200007087	0	171093	253
335.0859375	0	health	response	1	14	14	foodImage.11	FOODEEG_Images\0180.jpg	YN	Left	Yes	0.931649200007087	0	171565	234
336.12890625	1	taste	trialStart	1	15	15	foodImage.73	FOODEEG_Images\0717.jpg	NY	Right	Yes	1.14311930001713	0	172099	251
337.189453125	2	taste	foodImageDisplay	1	15	15	foodImage.73	FOODEEG_Images\0717.jpg	NY	Right	Yes	1.14311930001713	0	172642	252
339.255859375	1.14311930001713	taste	choicePhaseStart	1	15	15	foodImage.73	FOODEEG_Images\0717.jpg	NY	Right	Yes	1.14311930001713	0	173700	253
340.390625	0	taste	response	1	15	15	foodImage.73	FOODEEG_Images\0717.jpg	NY	Right	Yes	1.14311930001713	0	174281	235
341.43359375	1	decision	trialStart	1	16	16	foodImage.58	FOODEEG_Images\0605.jpg	NY	Right	Yes	0.626424299989594	0	174815	251
342.490234375	2	decision	foodImageDisplay	1	16	16	foodImage.58	FOODEEG_Images\0605.jpg	NY	Right	Yes	0.626424299989594	0	175356	252
344.556640625	0.626424299989594	decision	choicePhaseStart	1	16	16	foodImage.58	FOODEEG_Images\0605.jpg	NY	Right	Yes	0.626424299989594	0	176414	253
345.173828125	0	decision	response	1	16	16	foodImage.58	FOODEEG_Images\0605.jpg	NY	Right	Yes	0.626424299989594	0	176730	235
346.21875	1	decision	trialStart	1	17	17	foodImage.76	FOODEEG_Images\0766.jpg	YN	Left	Yes	0.849443599989172	0	177265	251
347.26171875	2	decision	foodImageDisplay	1	17	17	foodImage.76	FOODEEG_Images\0766.jpg	YN	Left	Yes	0.849443599989172	0	177799	252
349.326171875	0.849443599989172	decision	choicePhaseStart	1	17	17	foodImage.76	FOODEEG_Images\0766.jpg	YN	Left	Yes	0.849443599989172	0	178856	253
350.166015625	0	decision	response	1	17	17	foodImage.76	FOODEEG_Images\0766.jpg	YN	Left	Yes	0.849443599989172	0	179286	234
351.208984375	1	taste	trialStart	1	18	18	foodImage.26	FOODEEG_Images\0262.jpg	NY	Left	No	0.843143000005512	0	179820	251
352.25390625	2	taste	foodImageDisplay	1	18	18	foodImage.26	FOODEEG_Images\0262.jpg	NY	Left	No	0.843143000005512	0	180355	252
354.322265625	0.843143000005512	taste	choicePhaseStart	1	18	18	foodImage.26	FOODEEG_Images\0262.jpg	NY	Left	No	0.843143000005512	0	181414	253
355.158203125	0	taste	response	1	18	18	foodImage.26	FOODEEG_Images\0262.jpg	NY	Left	No	0.843143000005512	0	181842	234
356.19921875	1	health	trialStart	1	19	19	foodImage.5	FOODEEG_Images\0107.jpg	YN	Left	Yes	0.788111000001663	0	182375	251
357.259765625	2	health	foodImageDisplay	1	19	19	foodImage.5	FOODEEG_Images\0107.jpg	YN	Left	Yes	0.788111000001663	0	182918	252
359.322265625	0.788111000001663	health	choicePhaseStart	1	19	19	foodImage.5	FOODEEG_Images\0107.jpg	YN	Left	Yes	0.788111000001663	0	183974	253
360.1015625	0	health	response	1	19	19	foodImage.5	FOODEEG_Images\0107.jpg	YN	Left	Yes	0.788111000001663	0	184373	234
361.14453125	1	health	trialStart	1	20	20	foodImage.80	FOODEEG_Images\0796.jpg	NY	Right	Yes	0.962797500018496	0	184907	251
362.203125	2	health	foodImageDisplay	1	20	20	foodImage.80	FOODEEG_Images\0796.jpg	NY	Right	Yes	0.962797500018496	0	185449	252
364.267578125	0.962797500018496	health	choicePhaseStart	1	20	20	foodImage.80	FOODEEG_Images\0796.jpg	NY	Right	Yes	0.962797500018496	0	186506	253
365.220703125	0	health	response	1	20	20	foodImage.80	FOODEEG_Images\0796.jpg	NY	Right	Yes	0.962797500018496	0	186994	235
366.263671875	1	taste	trialStart	1	21	21	foodImage.98	FOODEEG_Images\0906.jpg	NY	Left	No	0.760819599992828	0	187528	251
367.302734375	2	taste	foodImageDisplay	1	21	21	foodImage.98	FOODEEG_Images\0906.jpg	NY	Left	No	0.760819599992828	0	188060	252
369.365234375	0.760819599992828	taste	choicePhaseStart	1	21	21	foodImage.98	FOODEEG_Images\0906.jpg	NY	Left	No	0.760819599992828	0	189116	253
370.1171875	0	taste	response	1	21	21	foodImage.98	FOODEEG_Images\0906.jpg	NY	Left	No	0.760819599992828	0	189501	234
371.16015625	1	health	trialStart	1	22	22	foodImage.30	FOODEEG_Images\0282.jpg	YN	Left	Yes	0.64719449999393	0	190035	251
372.20703125	2	health	foodImageDisplay	1	22	22	foodImage.30	FOODEEG_Images\0282.jpg	YN	Left	Yes	0.64719449999393	0	190571	252
374.271484375	0.64719449999393	health	choicePhaseStart	1	22	22	foodImage.30	FOODEEG_Images\0282.jpg	YN	Left	Yes	0.64719449999393	0	191628	253
374.908203125	0	health	response	1	22	22	foodImage.30	FOODEEG_Images\0282.jpg	YN	Left	Yes	0.64719449999393	0	191954	234
375.951171875	1	taste	trialStart	1	23	23	foodImage.68	FOODEEG_Images\0685.jpg	NY	Right	Yes	0.670325400016736	0	192488	251
377.03125	2	taste	foodImageDisplay	1	23	23	foodImage.68	FOODEEG_Images\0685.jpg	NY	Right	Yes	0.670325400016736	0	193041	252
379.09375	0.670325400016736	taste	choicePhaseStart	1	23	23	foodImage.68	FOODEEG_Images\0685.jpg	NY	Right	Yes	0.670325400016736	0	194097	253
379.755859375	0	taste	response	1	23	23	foodImage.68	FOODEEG_Images\0685.jpg	NY	Right	Yes	0.670325400016736	0	194436	235
380.798828125	1	health	trialStart	1	24	24	foodImage.82	FOODEEG_Images\0805.jpg	YN	Left	Yes	0.679598200018518	0	194970	251
381.85546875	2	health	foodImageDisplay	1	24	24	foodImage.82	FOODEEG_Images\0805.jpg	YN	Left	Yes	0.679598200018518	0	195511	252
383.91796875	0.679598200018518	health	choicePhaseStart	1	24	24	foodImage.82	FOODEEG_Images\0805.jpg	YN	Left	Yes	0.679598200018518	0	196567	253
384.587890625	0	health	response	1	24	24	foodImage.82	FOODEEG_Images\0805.jpg	YN	Left	Yes	0.679598200018518	0	196910	234
385.630859375	1	health	trialStart	1	25	25	foodImage.57	FOODEEG_Images\0587.jpg	YN	Right	No	1.20424569997704	0	197444	251
386.681640625	2	health	foodImageDisplay	1	25	25	foodImage.57	FOODEEG_Images\0587.jpg	YN	Right	No	1.20424569997704	0	197982	252
388.744140625	1.20424569997704	health	choicePhaseStart	1	25	25	foodImage.57	FOODEEG_Images\0587.jpg	YN	Right	No	1.20424569997704	0	199038	253
389.939453125	0	health	response	1	25	25	foodImage.57	FOODEEG_Images\0587.jpg	YN	Right	No	1.20424569997704	0	199650	235
390.984375	1	taste	trialStart	1	26	26	foodImage.8	FOODEEG_Images\0136.jpg	NY	Right	Yes	1.32223829999566	0	200185	251
392.025390625	2	taste	foodImageDisplay	1	26	26	foodImage.8	FOODEEG_Images\0136.jpg	NY	Right	Yes	1.32223829999566	0	200718	252
394.087890625	1.32223829999566	taste	choicePhaseStart	1	26	26	foodImage.8	FOODEEG_Images\0136.jpg	NY	Right	Yes	1.32223829999566	0	201774	253
395.404296875	0	taste	response	1	26	26	foodImage.8	FOODEEG_Images\0136.jpg	NY	Right	Yes	1.32223829999566	0	202448	235
396.447265625	1	health	trialStart	1	27	27	foodImage.109	FOODEEG_Images\0917.jpg	YN	Right	No	0.835190299985697	0	202982	251
397.486328125	2	health	foodImageDisplay	1	27	27	foodImage.109	FOODEEG_Images\0917.jpg	YN	Right	No	0.835190299985697	0	203514	252
399.5546875	0.835190299985697	health	choicePhaseStart	1	27	27	foodImage.109	FOODEEG_Images\0917.jpg	YN	Right	No	0.835190299985697	0	204573	253
400.37890625	0	health	response	1	27	27	foodImage.109	FOODEEG_Images\0917.jpg	YN	Right	No	0.835190299985697	0	204995	235
401.421875	1	health	trialStart	1	28	28	foodImage.16	FOODEEG_Images\0196.jpg	NY	Right	Yes	0.995322300004773	0	205529	251
402.482421875	2	health	foodImageDisplay	1	28	28	foodImage.16	FOODEEG_Images\0196.jpg	NY	Right	Yes	0.995322300004773	0	206072	252
404.544921875	0.995322300004773	health	choicePhaseStart	1	28	28	foodImage.16	FOODEEG_Images\0196.jpg	NY	Right	Yes	0.995322300004773	0	207128	253
405.53125	0	health	response	1	28	28	foodImage.16	FOODEEG_Images\0196.jpg	NY	Right	Yes	0.995322300004773	0	207633	235
406.57421875	1	decision	trialStart	1	29	29	foodImage.88	FOODEEG_Images\0878.jpg	YN	Left	Yes	1.06033589999424	0	208167	251
407.6328125	2	decision	foodImageDisplay	1	29	29	foodImage.88	FOODEEG_Images\0878.jpg	YN	Left	Yes	1.06033589999424	0	208709	252
409.6953125	1.06033589999424	decision	choicePhaseStart	1	29	29	foodImage.88	FOODEEG_Images\0878.jpg	YN	Left	Yes	1.06033589999424	0	209765	253
410.748046875	0	decision	response	1	29	29	foodImage.88	FOODEEG_Images\0878.jpg	YN	Left	Yes	1.06033589999424	0	210304	234
411.7890625	1	decision	trialStart	1	30	30	foodImage.2	FOODEEG_Images\0028.jpg	YN	Left	Yes	0.85371060000034	0	210837	251
412.83203125	2	decision	foodImageDisplay	1	30	30	foodImage.2	FOODEEG_Images\0028.jpg	YN	Left	Yes	0.85371060000034	0	211371	252
414.89453125	0.85371060000034	decision	choicePhaseStart	1	30	30	foodImage.2	FOODEEG_Images\0028.jpg	YN	Left	Yes	0.85371060000034	0	212427	253
415.73828125	0	decision	response	1	30	30	foodImage.2	FOODEEG_Images\0028.jpg	YN	Left	Yes	0.85371060000034	0	212859	234
416.78515625	1	decision	trialStart	1	31	31	foodImage.5	FOODEEG_Images\0107.jpg	YN	Left	Yes	0.642833200021414	0	213395	251
417.84375	2	decision	foodImageDisplay	1	31	31	foodImage.5	FOODEEG_Images\0107.jpg	YN	Left	Yes	0.642833200021414	0	213937	252
419.904296875	0.642833200021414	decision	choicePhaseStart	1	31	31	foodImage.5	FOODEEG_Images\0107.jpg	YN	Left	Yes	0.642833200021414	0	214992	253
420.5390625	0	decision	response	1	31	31	foodImage.5	FOODEEG_Images\0107.jpg	YN	Left	Yes	0.642833200021414	0	215317	234
421.58203125	1	health	trialStart	1	32	32	foodImage.120	FOODEEG_Images\0928.jpg	NY	Left	No	1.12050250000902	0	215851	251
422.62109375	2	health	foodImageDisplay	1	32	32	foodImage.120	FOODEEG_Images\0928.jpg	NY	Left	No	1.12050250000902	0	216383	252
424.68359375	1.12050250000902	health	choicePhaseStart	1	32	32	foodImage.120	FOODEEG_Images\0928.jpg	NY	Left	No	1.12050250000902	0	217439	253
425.794921875	0	health	response	1	32	32	foodImage.120	FOODEEG_Images\0928.jpg	NY	Left	No	1.12050250000902	0	218008	234
426.837890625	1	decision	trialStart	1	33	33	foodImage.19	FOODEEG_Images\0225.jpg	YN	Right	No	1.19687889999477	0	218542	251
427.880859375	2	decision	foodImageDisplay	1	33	33	foodImage.19	FOODEEG_Images\0225.jpg	YN	Right	No	1.19687889999477	0	219076	252
429.943359375	1.19687889999477	decision	choicePhaseStart	1	33	33	foodImage.19	FOODEEG_Images\0225.jpg	YN	Right	No	1.19687889999477	0	220132	253
431.130859375	0	decision	response	1	33	33	foodImage.19	FOODEEG_Images\0225.jpg	YN	Right	No	1.19687889999477	0	220740	235
432.1796875	1	health	trialStart	1	34	34	foodImage.3	FOODEEG_Images\0046.jpg	YN	Right	No	0.946003099990776	0	221277	251
433.22265625	2	health	foodImageDisplay	1	34	34	foodImage.3	FOODEEG_Images\0046.jpg	YN	Right	No	0.946003099990776	0	221811	252
435.287109375	0.946003099990776	health	choicePhaseStart	1	34	34	foodImage.3	FOODEEG_Images\0046.jpg	YN	Right	No	0.946003099990776	0	222868	253
436.2265625	0	health	response	1	34	34	foodImage.3	FOODEEG_Images\0046.jpg	YN	Right	No	0.946003099990776	0	223349	235
437.26953125	1	health	trialStart	1	35	35	foodImage.116	FOODEEG_Images\0924.jpg	NY	Left	No	1.36852059999364	0	223883	251
438.306640625	2	health	foodImageDisplay	1	35	35	foodImage.116	FOODEEG_Images\0924.jpg	NY	Left	No	1.36852059999364	0	224414	252
440.37109375	1.36852059999364	health	choicePhaseStart	1	35	35	foodImage.116	FOODEEG_Images\0924.jpg	NY	Left	No	1.36852059999364	0	225471	253
441.73046875	0	health	response	1	35	35	foodImage.116	FOODEEG_Images\0924.jpg	NY	Left	No	1.36852059999364	0	226167	234
442.7734375	1	taste	trialStart	1	36	36	foodImage.31	FOODEEG_Images\0294.jpg	YN	Left	Yes	0.777154599985806	0	226701	251
443.826171875	2	taste	foodImageDisplay	1	36	36	foodImage.31	FOODEEG_Images\0294.jpg	YN	Left	Yes	0.777154599985806	0	227240	252
445.890625	0.777154599985806	taste	choicePhaseStart	1	36	36	foodImage.31	FOODEEG_Images\0294.jpg	YN	Left	Yes	0.777154599985806	0	228297	253
446.658203125	0	taste	response	1	36	36	foodImage.31	FOODEEG_Images\0294.jpg	YN	Left	Yes	0.777154599985806	0	228690	234
447.703125	1	decision	trialStart	1	37	37	foodImage.7	FOODEEG_Images\0116.jpg	YN	Left	Yes	0.626455299992813	0	229225	251
448.744140625	2	decision	foodImageDisplay	1	37	37	foodImage.7	FOODEEG_Images\0116.jpg	YN	Left	Yes	0.626455299992813	0	229758	252
450.80859375	0.626455299992813	decision	choicePhaseStart	1	37	37	foodImage.7	FOODEEG_Images\0116.jpg	YN	Left	Yes	0.626455299992813	0	230815	253
451.42578125	0	decision	response	1	37	37	foodImage.7	FOODEEG_Images\0116.jpg	YN	Left	Yes	0.626455299992813	0	231131	234
452.470703125	1	taste	trialStart	1	38	38	foodImage.65	FOODEEG_Images\0658.jpg	NY	Left	No	1.22251590000815	0	231666	251
453.51171875	2	taste	foodImageDisplay	1	38	38	foodImage.65	FOODEEG_Images\0658.jpg	NY	Left	No	1.22251590000815	0	232199	252
455.580078125	1.22251590000815	taste	choicePhaseStart	1	38	38	foodImage.65	FOODEEG_Images\0658.jpg	NY	Left	No	1.22251590000815	0	233258	253
456.79296875	0	taste	response	1	38	38	foodImage.65	FOODEEG_Images\0658.jpg	NY	Left	No	1.22251590000815	0	233879	234
457.833984375	1	health	trialStart	1	39	39	foodImage.31	FOODEEG_Images\0294.jpg	YN	Right	No	1.48422890002257	0	234412	251
458.875	2	health	foodImageDisplay	1	39	39	foodImage.31	FOODEEG_Images\0294.jpg	YN	Right	No	1.48422890002257	0	234945	252
460.939453125	1.48422890002257	health	choicePhaseStart	1	39	39	foodImage.31	FOODEEG_Images\0294.jpg	YN	Right	No	1.48422890002257	0	236002	253
462.41796875	0	health	response	1	39	39	foodImage.31	FOODEEG_Images\0294.jpg	YN	Right	No	1.48422890002257	0	236759	235
463.458984375	1	decision	trialStart	1	40	40	foodImage.77	FOODEEG_Images\0771.jpg	YN	Left	Yes	0.722146100015379	0	237292	251
464.50390625	2	decision	foodImageDisplay	1	40	40	foodImage.77	FOODEEG_Images\0771.jpg	YN	Left	Yes	0.722146100015379	0	237827	252
466.568359375	0.722146100015379	decision	choicePhaseStart	1	40	40	foodImage.77	FOODEEG_Images\0771.jpg	YN	Left	Yes	0.722146100015379	0	238884	253
467.28125	0	decision	response	1	40	40	foodImage.77	FOODEEG_Images\0771.jpg	YN	Left	Yes	0.722146100015379	0	239249	234
468.330078125	1	decision	trialStart	1	41	41	foodImage.21	FOODEEG_Images\0234.jpg	NY	Left	No	0.709396099991864	0	239786	251
469.388671875	2	decision	foodImageDisplay	1	41	41	foodImage.21	FOODEEG_Images\0234.jpg	NY	Left	No	0.709396099991864	0	240328	252
471.453125	0.709396099991864	decision	choicePhaseStart	1	41	41	foodImage.21	FOODEEG_Images\0234.jpg	NY	Left	No	0.709396099991864	0	241385	253
472.15234375	0	decision	response	1	41	41	foodImage.21	FOODEEG_Images\0234.jpg	NY	Left	No	0.709396099991864	0	241743	234
473.1953125	1	decision	trialStart	1	42	42	foodImage.6	FOODEEG_Images\0113.jpg	YN	Left	Yes	0.979997000016738	0	242277	251
474.23828125	2	decision	foodImageDisplay	1	42	42	foodImage.6	FOODEEG_Images\0113.jpg	YN	Left	Yes	0.979997000016738	0	242811	252
476.30078125	0.979997000016738	decision	choicePhaseStart	1	42	42	foodImage.6	FOODEEG_Images\0113.jpg	YN	Left	Yes	0.979997000016738	0	243867	253
477.2734375	0	decision	response	1	42	42	foodImage.6	FOODEEG_Images\0113.jpg	YN	Left	Yes	0.979997000016738	0	244365	234
478.31640625	1	taste	trialStart	1	43	43	foodImage.11	FOODEEG_Images\0180.jpg	YN	Left	Yes	0.800083299982361	0	244899	251
479.359375	2	taste	foodImageDisplay	1	43	43	foodImage.11	FOODEEG_Images\0180.jpg	YN	Left	Yes	0.800083299982361	0	245433	252
481.427734375	0.800083299982361	taste	choicePhaseStart	1	43	43	foodImage.11	FOODEEG_Images\0180.jpg	YN	Left	Yes	0.800083299982361	0	246492	253
482.216796875	0	taste	response	1	43	43	foodImage.11	FOODEEG_Images\0180.jpg	YN	Left	Yes	0.800083299982361	0	246896	234
483.259765625	1	decision	trialStart	1	44	44	foodImage.80	FOODEEG_Images\0796.jpg	YN	Right	No	1.25171830001636	0	247430	251
484.31640625	2	decision	foodImageDisplay	1	44	44	foodImage.80	FOODEEG_Images\0796.jpg	YN	Right	No	1.25171830001636	0	247971	252
486.380859375	1.25171830001636	decision	choicePhaseStart	1	44	44	foodImage.80	FOODEEG_Images\0796.jpg	YN	Right	No	1.25171830001636	0	249028	253
487.625	0	decision	response	1	44	44	foodImage.80	FOODEEG_Images\0796.jpg	YN	Right	No	1.25171830001636	0	249665	235
488.666015625	1	decision	trialStart	1	45	45	foodImage.79	FOODEEG_Images\0794.jpg	NY	Left	No	0.828493100008927	0	250198	251
489.716796875	2	decision	foodImageDisplay	1	45	45	foodImage.79	FOODEEG_Images\0794.jpg	NY	Left	No	0.828493100008927	0	250736	252
491.78125	0.828493100008927	decision	choicePhaseStart	1	45	45	foodImage.79	FOODEEG_Images\0794.jpg	NY	Left	No	0.828493100008927	0	251793	253
492.599609375	0	decision	response	1	45	45	foodImage.79	FOODEEG_Images\0794.jpg	NY	Left	No	0.828493100008927	0	252212	234
493.642578125	1	health	trialStart	1	46	46	foodImage.75	FOODEEG_Images\0763.jpg	YN	Left	Yes	0.759695199987618	0	252746	251
494.6875	2	health	foodImageDisplay	1	46	46	foodImage.75	FOODEEG_Images\0763.jpg	YN	Left	Yes	0.759695199987618	0	253281	252
496.75	0.759695199987618	health	choicePhaseStart	1	46	46	foodImage.75	FOODEEG_Images\0763.jpg	YN	Left	Yes	0.759695199987618	0	254337	253
497.50390625	0	health	response	1	46	46	foodImage.75	FOODEEG_Images\0763.jpg	YN	Left	Yes	0.759695199987618	0	254723	234
498.55078125	1	taste	trialStart	1	47	47	foodImage.95	FOODEEG_Images\0903.jpg	YN	Right	No	0.996750399994198	0	255259	251
499.58984375	2	taste	foodImageDisplay	1	47	47	foodImage.95	FOODEEG_Images\0903.jpg	YN	Right	No	0.996750399994198	0	255791	252
501.65234375	0.996750399994198	taste	choicePhaseStart	1	47	47	foodImage.95	FOODEEG_Images\0903.jpg	YN	Right	No	0.996750399994198	0	256847	253
502.640625	0	taste	response	1	47	47	foodImage.95	FOODEEG_Images\0903.jpg	YN	Right	No	0.996750399994198	0	257353	235
503.68359375	1	decision	trialStart	1	48	48	foodImage.74	FOODEEG_Images\0752.jpg	YN	Right	No	0.659043200023007	0	257887	251
504.724609375	2	decision	foodImageDisplay	1	48	48	foodImage.74	FOODEEG_Images\0752.jpg	YN	Right	No	0.659043200023007	0	258420	252
506.7890625	0.659043200023007	decision	choicePhaseStart	1	48	48	foodImage.74	FOODEEG_Images\0752.jpg	YN	Right	No	0.659043200023007	0	259477	253
507.439453125	0	decision	response	1	48	48	foodImage.74	FOODEEG_Images\0752.jpg	YN	Right	No	0.659043200023007	0	259810	235
508.482421875	1	decision	trialStart	1	49	49	foodImage.96	FOODEEG_Images\0904.jpg	YN	Right	No	0.889523100020597	0	260344	251
509.51953125	2	decision	foodImageDisplay	1	49	49	foodImage.96	FOODEEG_Images\0904.jpg	YN	Right	No	0.889523100020597	0	260875	252
511.583984375	0.889523100020597	decision	choicePhaseStart	1	49	49	foodImage.96	FOODEEG_Images\0904.jpg	YN	Right	No	0.889523100020597	0	261932	253
512.462890625	0	decision	response	1	49	49	foodImage.96	FOODEEG_Images\0904.jpg	YN	Right	No	0.889523100020597	0	262382	235
513.505859375	1	taste	trialStart	1	50	50	foodImage.5	FOODEEG_Images\0107.jpg	YN	Left	Yes	0.723896999988938	0	262916	251
514.564453125	2	taste	foodImageDisplay	1	50	50	foodImage.5	FOODEEG_Images\0107.jpg	YN	Left	Yes	0.723896999988938	0	263458	252
516.62890625	0.723896999988938	taste	choicePhaseStart	1	50	50	foodImage.5	FOODEEG_Images\0107.jpg	YN	Left	Yes	0.723896999988938	0	264515	253
517.34375	0	taste	response	1	50	50	foodImage.5	FOODEEG_Images\0107.jpg	YN	Left	Yes	0.723896999988938	0	264881	234
518.38671875	1	taste	trialStart	1	51	51	foodImage.66	FOODEEG_Images\0676.jpg	YN	Left	Yes	1.15476269999635	0	265415	251
519.4296875	2	taste	foodImageDisplay	1	51	51	foodImage.66	FOODEEG_Images\0676.jpg	YN	Left	Yes	1.15476269999635	0	265949	252
521.494140625	1.15476269999635	taste	choicePhaseStart	1	51	51	foodImage.66	FOODEEG_Images\0676.jpg	YN	Left	Yes	1.15476269999635	0	267006	253
522.638671875	0	taste	response	1	51	51	foodImage.66	FOODEEG_Images\0676.jpg	YN	Left	Yes	1.15476269999635	0	267592	234
523.681640625	1	health	trialStart	1	52	52	foodImage.42	FOODEEG_Images\0438.jpg	NY	Right	Yes	1.21232739998959	0	268126	251
524.7734375	2	health	foodImageDisplay	1	52	52	foodImage.42	FOODEEG_Images\0438.jpg	NY	Right	Yes	1.21232739998959	0	268685	252
526.8359375	1.21232739998959	health	choicePhaseStart	1	52	52	foodImage.42	FOODEEG_Images\0438.jpg	NY	Right	Yes	1.21232739998959	0	269741	253
528.0390625	0	health	response	1	52	52	foodImage.42	FOODEEG_Images\0438.jpg	NY	Right	Yes	1.21232739998959	0	270357	235
529.08203125	1	taste	trialStart	1	53	53	foodImage.36	FOODEEG_Images\0352.jpg	NY	Right	Yes	0.842368500016164	0	270891	251
530.1640625	2	taste	foodImageDisplay	1	53	53	foodImage.36	FOODEEG_Images\0352.jpg	NY	Right	Yes	0.842368500016164	0	271445	252
532.2265625	0.842368500016164	taste	choicePhaseStart	1	53	53	foodImage.36	FOODEEG_Images\0352.jpg	NY	Right	Yes	0.842368500016164	0	272501	253
533.0625	0	taste	response	1	53	53	foodImage.36	FOODEEG_Images\0352.jpg	NY	Right	Yes	0.842368500016164	0	272929	235
534.10546875	1	decision	trialStart	1	54	54	foodImage.49	FOODEEG_Images\0515.jpg	YN	Left	Yes	1.42089710000437	0	273463	251
535.146484375	2	decision	foodImageDisplay	1	54	54	foodImage.49	FOODEEG_Images\0515.jpg	YN	Left	Yes	1.42089710000437	0	273996	252
537.2109375	1.42089710000437	decision	choicePhaseStart	1	54	54	foodImage.49	FOODEEG_Images\0515.jpg	YN	Left	Yes	1.42089710000437	0	275053	253
538.623046875	0	decision	response	1	54	54	foodImage.49	FOODEEG_Images\0515.jpg	YN	Left	Yes	1.42089710000437	0	275776	234
539.669921875	1	health	trialStart	1	55	55	foodImage.63	FOODEEG_Images\0645.jpg	YN	Left	Yes	1.36064040000201	0	276312	251
540.7109375	2	health	foodImageDisplay	1	55	55	foodImage.63	FOODEEG_Images\0645.jpg	YN	Left	Yes	1.36064040000201	0	276845	252
542.775390625	1.36064040000201	health	choicePhaseStart	1	55	55	foodImage.63	FOODEEG_Images\0645.jpg	YN	Left	Yes	1.36064040000201	0	277902	253
544.126953125	0	health	response	1	55	55	foodImage.63	FOODEEG_Images\0645.jpg	YN	Left	Yes	1.36064040000201	0	278594	234
545.169921875	1	decision	trialStart	1	56	56	foodImage.48	FOODEEG_Images\0494.jpg	NY	Right	Yes	0.747367299976759	0	279128	251
546.212890625	2	decision	foodImageDisplay	1	56	56	foodImage.48	FOODEEG_Images\0494.jpg	NY	Right	Yes	0.747367299976759	0	279662	252
548.275390625	0.747367299976759	decision	choicePhaseStart	1	56	56	foodImage.48	FOODEEG_Images\0494.jpg	NY	Right	Yes	0.747367299976759	0	280718	253
549.013671875	0	decision	response	1	56	56	foodImage.48	FOODEEG_Images\0494.jpg	NY	Right	Yes	0.747367299976759	0	281096	235
550.056640625	1	taste	trialStart	1	57	57	foodImage.84	FOODEEG_Images\0830.jpg	YN	Right	No	0.950837700016564	0	281630	251
551.11328125	2	taste	foodImageDisplay	1	57	57	foodImage.84	FOODEEG_Images\0830.jpg	YN	Right	No	0.950837700016564	0	282171	252
553.17578125	0.950837700016564	taste	choicePhaseStart	1	57	57	foodImage.84	FOODEEG_Images\0830.jpg	YN	Right	No	0.950837700016564	0	283227	253
554.1171875	0	taste	response	1	57	57	foodImage.84	FOODEEG_Images\0830.jpg	YN	Right	No	0.950837700016564	0	283709	235
555.166015625	1	decision	trialStart	1	58	58	foodImage.38	FOODEEG_Images\0365.jpg	YN	Left	Yes	0.70565920000081	0	284246	251
556.205078125	2	decision	foodImageDisplay	1	58	58	foodImage.38	FOODEEG_Images\0365.jpg	YN	Left	Yes	0.70565920000081	0	284778	252
558.26953125	0.70565920000081	decision	choicePhaseStart	1	58	58	foodImage.38	FOODEEG_Images\0365.jpg	YN	Left	Yes	0.70565920000081	0	285835	253
558.96484375	0	decision	response	1	58	58	foodImage.38	FOODEEG_Images\0365.jpg	YN	Left	Yes	0.70565920000081	0	286191	234
560.0078125	1	decision	trialStart	1	59	59	foodImage.99	FOODEEG_Images\0907.jpg	NY	Left	No	1.55092459998559	0	286725	251
561.046875	2	decision	foodImageDisplay	1	59	59	foodImage.99	FOODEEG_Images\0907.jpg	NY	Left	No	1.55092459998559	0	287257	252
563.109375	1.55092459998559	decision	choicePhaseStart	1	59	59	foodImage.99	FOODEEG_Images\0907.jpg	NY	Left	No	1.55092459998559	0	288313	253
564.65234375	0	decision	response	1	59	59	foodImage.99	FOODEEG_Images\0907.jpg	NY	Left	No	1.55092459998559	0	289103	234
565.6953125	1	decision	trialStart	1	60	60	foodImage.47	FOODEEG_Images\0488.jpg	NY	Right	Yes	0.594238799996674	0	289637	251
566.73828125	2	decision	foodImageDisplay	1	60	60	foodImage.47	FOODEEG_Images\0488.jpg	NY	Right	Yes	0.594238799996674	0	290171	252
568.80078125	0.594238799996674	decision	choicePhaseStart	1	60	60	foodImage.47	FOODEEG_Images\0488.jpg	NY	Right	Yes	0.594238799996674	0	291227	253
569.388671875	0	decision	response	1	60	60	foodImage.47	FOODEEG_Images\0488.jpg	NY	Right	Yes	0.594238799996674	0	291528	235
571.43359375	8.052734375	n/a	blockEnd	n/a	n/a	n/a	n/a	n/a	n/a	n/a	n/a	n/a	n/a	292575	254
579.486328125	2	n/a	blockStart	2	n/a	n/a	n/a	n/a	n/a	n/a	n/a	n/a	n/a	296698	250
581.51953125	1	taste	trialStart	2	61	1	foodImage.27	FOODEEG_Images\0263.jpg	YN	Left	Yes	1.29200620000483	0	297739	251
582.5625	2	taste	foodImageDisplay	2	61	1	foodImage.27	FOODEEG_Images\0263.jpg	YN	Left	Yes	1.29200620000483	0	298273	252
584.625	1.29200620000483	taste	choicePhaseStart	2	61	1	foodImage.27	FOODEEG_Images\0263.jpg	YN	Left	Yes	1.29200620000483	0	299329	253
585.908203125	0	taste	response	2	61	1	foodImage.27	FOODEEG_Images\0263.jpg	YN	Left	Yes	1.29200620000483	0	299986	234
586.94921875	1	health	trialStart	2	62	2	foodImage.114	FOODEEG_Images\0922.jpg	YN	Right	No	1.54473039999721	0	300519	251
587.98828125	2	health	foodImageDisplay	2	62	2	foodImage.114	FOODEEG_Images\0922.jpg	YN	Right	No	1.54473039999721	0	301051	252
590.052734375	1.54473039999721	health	choicePhaseStart	2	62	2	foodImage.114	FOODEEG_Images\0922.jpg	YN	Right	No	1.54473039999721	0	302108	253
591.587890625	0	health	response	2	62	2	foodImage.114	FOODEEG_Images\0922.jpg	YN	Right	No	1.54473039999721	0	302894	235
592.630859375	1	taste	trialStart	2	63	3	foodImage.50	FOODEEG_Images\0529.jpg	YN	Left	Yes	0.844796300021699	0	303428	251
593.689453125	2	taste	foodImageDisplay	2	63	3	foodImage.50	FOODEEG_Images\0529.jpg	YN	Left	Yes	0.844796300021699	0	303970	252
595.751953125	0.844796300021699	taste	choicePhaseStart	2	63	3	foodImage.50	FOODEEG_Images\0529.jpg	YN	Left	Yes	0.844796300021699	0	305026	253
596.587890625	0	taste	response	2	63	3	foodImage.50	FOODEEG_Images\0529.jpg	YN	Left	Yes	0.844796300021699	0	305454	234
597.6328125	1	taste	trialStart	2	64	4	foodImage.72	FOODEEG_Images\0714.jpg	YN	Right	No	0.863826500019059	0	305989	251
598.67578125	2	taste	foodImageDisplay	2	64	4	foodImage.72	FOODEEG_Images\0714.jpg	YN	Right	No	0.863826500019059	0	306523	252
600.73828125	0.863826500019059	taste	choicePhaseStart	2	64	4	foodImage.72	FOODEEG_Images\0714.jpg	YN	Right	No	0.863826500019059	0	307579	253
601.595703125	0	taste	response	2	64	4	foodImage.72	FOODEEG_Images\0714.jpg	YN	Right	No	0.863826500019059	0	308018	235
602.640625	1	decision	trialStart	2	65	5	foodImage.78	FOODEEG_Images\0787.jpg	YN	Left	Yes	0.877927099994849	0	308553	251
603.6875	2	decision	foodImageDisplay	2	65	5	foodImage.78	FOODEEG_Images\0787.jpg	YN	Left	Yes	0.877927099994849	0	309089	252
605.751953125	0.877927099994849	decision	choicePhaseStart	2	65	5	foodImage.78	FOODEEG_Images\0787.jpg	YN	Left	Yes	0.877927099994849	0	310146	253
606.619140625	0	decision	response	2	65	5	foodImage.78	FOODEEG_Images\0787.jpg	YN	Left	Yes	0.877927099994849	0	310590	234
607.66796875	1	taste	trialStart	2	66	6	foodImage.48	FOODEEG_Images\0494.jpg	NY	Right	Yes	0.775164399994537	0	311127	251
608.7109375	2	taste	foodImageDisplay	2	66	6	foodImage.48	FOODEEG_Images\0494.jpg	NY	Right	Yes	0.775164399994537	0	311661	252
610.7734375	0.775164399994537	taste	choicePhaseStart	2	66	6	foodImage.48	FOODEEG_Images\0494.jpg	NY	Right	Yes	0.775164399994537	0	312717	253
611.5390625	0	taste	response	2	66	6	foodImage.48	FOODEEG_Images\0494.jpg	NY	Right	Yes	0.775164399994537	0	313109	235
612.58203125	1	decision	trialStart	2	67	7	foodImage.33	FOODEEG_Images\0329.jpg	YN	Left	Yes	0.724727599998005	0	313643	251
613.625	2	decision	foodImageDisplay	2	67	7	foodImage.33	FOODEEG_Images\0329.jpg	YN	Left	Yes	0.724727599998005	0	314177	252
615.6875	0.724727599998005	decision	choicePhaseStart	2	67	7	foodImage.33	FOODEEG_Images\0329.jpg	YN	Left	Yes	0.724727599998005	0	315233	253
616.40234375	0	decision	response	2	67	7	foodImage.33	FOODEEG_Images\0329.jpg	YN	Left	Yes	0.724727599998005	0	315599	234
617.4453125	1	decision	trialStart	2	68	8	foodImage.70	FOODEEG_Images\0705.jpg	NY	Left	No	0.938403299980564	0	316133	251
618.505859375	2	decision	foodImageDisplay	2	68	8	foodImage.70	FOODEEG_Images\0705.jpg	NY	Left	No	0.938403299980564	0	316676	252
620.5703125	0.938403299980564	decision	choicePhaseStart	2	68	8	foodImage.70	FOODEEG_Images\0705.jpg	NY	Left	No	0.938403299980564	0	317733	253
621.498046875	0	decision	response	2	68	8	foodImage.70	FOODEEG_Images\0705.jpg	NY	Left	No	0.938403299980564	0	318208	234
622.541015625	1	taste	trialStart	2	69	9	foodImage.103	FOODEEG_Images\0911.jpg	YN	Left	Yes	0.687777600018308	0	318742	251
623.580078125	2	taste	foodImageDisplay	2	69	9	foodImage.103	FOODEEG_Images\0911.jpg	YN	Left	Yes	0.687777600018308	0	319274	252
625.64453125	0.687777600018308	taste	choicePhaseStart	2	69	9	foodImage.103	FOODEEG_Images\0911.jpg	YN	Left	Yes	0.687777600018308	0	320331	253
626.322265625	0	taste	response	2	69	9	foodImage.103	FOODEEG_Images\0911.jpg	YN	Left	Yes	0.687777600018308	0	320678	234
627.365234375	1	health	trialStart	2	70	10	foodImage.49	FOODEEG_Images\0515.jpg	NY	Right	Yes	1.47095529999933	0	321212	251
628.40625	2	health	foodImageDisplay	2	70	10	foodImage.49	FOODEEG_Images\0515.jpg	NY	Right	Yes	1.47095529999933	0	321745	252
630.4765625	1.47095529999933	health	choicePhaseStart	2	70	10	foodImage.49	FOODEEG_Images\0515.jpg	NY	Right	Yes	1.47095529999933	0	322805	253
631.939453125	0	health	response	2	70	10	foodImage.49	FOODEEG_Images\0515.jpg	NY	Right	Yes	1.47095529999933	0	323554	235
632.98046875	1	decision	trialStart	2	71	11	foodImage.101	FOODEEG_Images\0909.jpg	NY	Left	No	0.688820399984252	0	324087	251
634.01953125	2	decision	foodImageDisplay	2	71	11	foodImage.101	FOODEEG_Images\0909.jpg	NY	Left	No	0.688820399984252	0	324619	252
636.08203125	0.688820399984252	decision	choicePhaseStart	2	71	11	foodImage.101	FOODEEG_Images\0909.jpg	NY	Left	No	0.688820399984252	0	325675	253
636.76171875	0	decision	response	2	71	11	foodImage.101	FOODEEG_Images\0909.jpg	NY	Left	No	0.688820399984252	0	326023	234
637.8046875	1	taste	trialStart	2	72	12	foodImage.2	FOODEEG_Images\0028.jpg	NY	Right	Yes	0.957133499992779	0	326557	251
638.84765625	2	taste	foodImageDisplay	2	72	12	foodImage.2	FOODEEG_Images\0028.jpg	NY	Right	Yes	0.957133499992779	0	327091	252
640.912109375	0.957133499992779	taste	choicePhaseStart	2	72	12	foodImage.2	FOODEEG_Images\0028.jpg	NY	Right	Yes	0.957133499992779	0	328148	253
641.859375	0	taste	response	2	72	12	foodImage.2	FOODEEG_Images\0028.jpg	NY	Right	Yes	0.957133499992779	0	328633	235
642.90234375	1	decision	trialStart	2	73	13	foodImage.82	FOODEEG_Images\0805.jpg	NY	Left	No	0.782149000006029	0	329167	251
643.958984375	2	decision	foodImageDisplay	2	73	13	foodImage.82	FOODEEG_Images\0805.jpg	NY	Left	No	0.782149000006029	0	329708	252
646.021484375	0.782149000006029	decision	choicePhaseStart	2	73	13	foodImage.82	FOODEEG_Images\0805.jpg	NY	Left	No	0.782149000006029	0	330764	253
646.794921875	0	decision	response	2	73	13	foodImage.82	FOODEEG_Images\0805.jpg	NY	Left	No	0.782149000006029	0	331160	234
647.837890625	1	decision	trialStart	2	74	14	foodImage.85	FOODEEG_Images\0841.jpg	NY	Right	Yes	0.715216800017515	0	331694	251
648.89453125	2	decision	foodImageDisplay	2	74	14	foodImage.85	FOODEEG_Images\0841.jpg	NY	Right	Yes	0.715216800017515	0	332235	252
650.958984375	0.715216800017515	decision	choicePhaseStart	2	74	14	foodImage.85	FOODEEG_Images\0841.jpg	NY	Right	Yes	0.715216800017515	0	333292	253
651.666015625	0	decision	response	2	74	14	foodImage.85	FOODEEG_Images\0841.jpg	NY	Right	Yes	0.715216800017515	0	333654	235
652.708984375	1	health	trialStart	2	75	15	foodImage.23	FOODEEG_Images\0244.jpg	YN	Right	No	1.50687389998347	0	334188	251
653.767578125	2	health	foodImageDisplay	2	75	15	foodImage.23	FOODEEG_Images\0244.jpg	YN	Right	No	1.50687389998347	0	334730	252
655.83203125	1.50687389998347	health	choicePhaseStart	2	75	15	foodImage.23	FOODEEG_Images\0244.jpg	YN	Right	No	1.50687389998347	0	335787	253
657.330078125	0	health	response	2	75	15	foodImage.23	FOODEEG_Images\0244.jpg	YN	Right	No	1.50687389998347	0	336554	235
658.37109375	1	decision	trialStart	2	76	16	foodImage.39	FOODEEG_Images\0367.jpg	YN	Left	Yes	0.680365500011249	0	337087	251
659.408203125	2	decision	foodImageDisplay	2	76	16	foodImage.39	FOODEEG_Images\0367.jpg	YN	Left	Yes	0.680365500011249	0	337618	252
661.474609375	0.680365500011249	decision	choicePhaseStart	2	76	16	foodImage.39	FOODEEG_Images\0367.jpg	YN	Left	Yes	0.680365500011249	0	338676	253
662.146484375	0	decision	response	2	76	16	foodImage.39	FOODEEG_Images\0367.jpg	YN	Left	Yes	0.680365500011249	0	339020	234
663.193359375	1	taste	trialStart	2	77	17	foodImage.71	FOODEEG_Images\0713.jpg	YN	Left	Yes	0.750686000013957	0	339556	251
664.236328125	2	taste	foodImageDisplay	2	77	17	foodImage.71	FOODEEG_Images\0713.jpg	YN	Left	Yes	0.750686000013957	0	340090	252
666.30078125	0.750686000013957	taste	choicePhaseStart	2	77	17	foodImage.71	FOODEEG_Images\0713.jpg	YN	Left	Yes	0.750686000013957	0	341147	253
667.041015625	0	taste	response	2	77	17	foodImage.71	FOODEEG_Images\0713.jpg	YN	Left	Yes	0.750686000013957	0	341526	234
668.083984375	1	decision	trialStart	2	78	18	foodImage.86	FOODEEG_Images\0844.jpg	NY	Right	Yes	1.19440590002341	0	342060	251
669.15234375	2	decision	foodImageDisplay	2	78	18	foodImage.86	FOODEEG_Images\0844.jpg	NY	Right	Yes	1.19440590002341	0	342607	252
671.216796875	1.19440590002341	decision	choicePhaseStart	2	78	18	foodImage.86	FOODEEG_Images\0844.jpg	NY	Right	Yes	1.19440590002341	0	343664	253
672.400390625	0	decision	response	2	78	18	foodImage.86	FOODEEG_Images\0844.jpg	NY	Right	Yes	1.19440590002341	0	344270	235
673.4453125	1	taste	trialStart	2	79	19	foodImage.37	FOODEEG_Images\0359.jpg	NY	Right	Yes	1.69835140000214	0	344805	251
674.48828125	2	taste	foodImageDisplay	2	79	19	foodImage.37	FOODEEG_Images\0359.jpg	NY	Right	Yes	1.69835140000214	0	345339	252
676.552734375	1.69835140000214	taste	choicePhaseStart	2	79	19	foodImage.37	FOODEEG_Images\0359.jpg	NY	Right	Yes	1.69835140000214	0	346396	253
678.240234375	0	taste	response	2	79	19	foodImage.37	FOODEEG_Images\0359.jpg	NY	Right	Yes	1.69835140000214	0	347260	235
679.283203125	1	taste	trialStart	2	80	20	foodImage.116	FOODEEG_Images\0924.jpg	YN	Right	No	0.885914600017713	0	347794	251
680.33984375	2	taste	foodImageDisplay	2	80	20	foodImage.116	FOODEEG_Images\0924.jpg	YN	Right	No	0.885914600017713	0	348335	252
682.404296875	0.885914600017713	taste	choicePhaseStart	2	80	20	foodImage.116	FOODEEG_Images\0924.jpg	YN	Right	No	0.885914600017713	0	349392	253
683.28125	0	taste	response	2	80	20	foodImage.116	FOODEEG_Images\0924.jpg	YN	Right	No	0.885914600017713	0	349841	235
684.32421875	1	taste	trialStart	2	81	21	foodImage.80	FOODEEG_Images\0796.jpg	NY	Left	No	0.761046700004954	0	350375	251
685.3828125	2	taste	foodImageDisplay	2	81	21	foodImage.80	FOODEEG_Images\0796.jpg	NY	Left	No	0.761046700004954	0	350917	252
687.4453125	0.761046700004954	taste	choicePhaseStart	2	81	21	foodImage.80	FOODEEG_Images\0796.jpg	NY	Left	No	0.761046700004954	0	351973	253
688.201171875	0	taste	response	2	81	21	foodImage.80	FOODEEG_Images\0796.jpg	NY	Left	No	0.761046700004954	0	352360	234
689.2421875	1	health	trialStart	2	82	22	foodImage.64	FOODEEG_Images\0647.jpg	NY	Right	Yes	0.753952400002163	0	352893	251
690.30078125	2	health	foodImageDisplay	2	82	22	foodImage.64	FOODEEG_Images\0647.jpg	NY	Right	Yes	0.753952400002163	0	353435	252
692.365234375	0.753952400002163	health	choicePhaseStart	2	82	22	foodImage.64	FOODEEG_Images\0647.jpg	NY	Right	Yes	0.753952400002163	0	354492	253
693.111328125	0	health	response	2	82	22	foodImage.64	FOODEEG_Images\0647.jpg	NY	Right	Yes	0.753952400002163	0	354874	235
694.1640625	1	health	trialStart	2	83	23	foodImage.67	FOODEEG_Images\0679.jpg	NY	Left	No	1.45082319999347	0	355413	251
695.220703125	2	health	foodImageDisplay	2	83	23	foodImage.67	FOODEEG_Images\0679.jpg	NY	Left	No	1.45082319999347	0	355954	252
697.283203125	1.45082319999347	health	choicePhaseStart	2	83	23	foodImage.67	FOODEEG_Images\0679.jpg	NY	Left	No	1.45082319999347	0	357010	253
698.728515625	0	health	response	2	83	23	foodImage.67	FOODEEG_Images\0679.jpg	NY	Left	No	1.45082319999347	0	357750	234
699.775390625	1	decision	trialStart	2	84	24	foodImage.43	FOODEEG_Images\0445.jpg	NY	Right	Yes	0.968088699999498	0	358286	251
700.833984375	2	decision	foodImageDisplay	2	84	24	foodImage.43	FOODEEG_Images\0445.jpg	NY	Right	Yes	0.968088699999498	0	358828	252
702.90234375	0.968088699999498	decision	choicePhaseStart	2	84	24	foodImage.43	FOODEEG_Images\0445.jpg	NY	Right	Yes	0.968088699999498	0	359887	253
703.86328125	0	decision	response	2	84	24	foodImage.43	FOODEEG_Images\0445.jpg	NY	Right	Yes	0.968088699999498	0	360379	235
704.91015625	1	decision	trialStart	2	85	25	foodImage.59	FOODEEG_Images\0607.jpg	YN	Left	Yes	0.94591819998459	0	360915	251
705.958984375	2	decision	foodImageDisplay	2	85	25	foodImage.59	FOODEEG_Images\0607.jpg	YN	Left	Yes	0.94591819998459	0	361452	252
708.0234375	0.94591819998459	decision	choicePhaseStart	2	85	25	foodImage.59	FOODEEG_Images\0607.jpg	YN	Left	Yes	0.94591819998459	0	362509	253
708.958984375	0	decision	response	2	85	25	foodImage.59	FOODEEG_Images\0607.jpg	YN	Left	Yes	0.94591819998459	0	362988	234
710.00390625	1	taste	trialStart	2	86	26	foodImage.49	FOODEEG_Images\0515.jpg	YN	Left	Yes	0.707417800003896	0	363523	251
711.044921875	2	taste	foodImageDisplay	2	86	26	foodImage.49	FOODEEG_Images\0515.jpg	YN	Left	Yes	0.707417800003896	0	364056	252
713.109375	0.707417800003896	taste	choicePhaseStart	2	86	26	foodImage.49	FOODEEG_Images\0515.jpg	YN	Left	Yes	0.707417800003896	0	365113	253
713.806640625	0	taste	response	2	86	26	foodImage.49	FOODEEG_Images\0515.jpg	YN	Left	Yes	0.707417800003896	0	365470	234
714.853515625	1	decision	trialStart	2	87	27	foodImage.93	FOODEEG_Images\0901.jpg	NY	Left	No	1.40052450000076	0	366006	251
715.892578125	2	decision	foodImageDisplay	2	87	27	foodImage.93	FOODEEG_Images\0901.jpg	NY	Left	No	1.40052450000076	0	366538	252
717.966796875	1.40052450000076	decision	choicePhaseStart	2	87	27	foodImage.93	FOODEEG_Images\0901.jpg	NY	Left	No	1.40052450000076	0	367600	253
719.359375	0	decision	response	2	87	27	foodImage.93	FOODEEG_Images\0901.jpg	NY	Left	No	1.40052450000076	0	368313	234
720.40234375	1	decision	trialStart	2	88	28	foodImage.15	FOODEEG_Images\0189.jpg	NY	Left	No	0.931769000017084	0	368847	251
721.4609375	2	decision	foodImageDisplay	2	88	28	foodImage.15	FOODEEG_Images\0189.jpg	NY	Left	No	0.931769000017084	0	369389	252
723.5234375	0.931769000017084	decision	choicePhaseStart	2	88	28	foodImage.15	FOODEEG_Images\0189.jpg	NY	Left	No	0.931769000017084	0	370445	253
724.447265625	0	decision	response	2	88	28	foodImage.15	FOODEEG_Images\0189.jpg	NY	Left	No	0.931769000017084	0	370918	234
725.48828125	1	taste	trialStart	2	89	29	foodImage.94	FOODEEG_Images\0902.jpg	NY	Right	Yes	0.848661600000923	0	371451	251
726.52734375	2	taste	foodImageDisplay	2	89	29	foodImage.94	FOODEEG_Images\0902.jpg	NY	Right	Yes	0.848661600000923	0	371983	252
728.58984375	0.848661600000923	taste	choicePhaseStart	2	89	29	foodImage.94	FOODEEG_Images\0902.jpg	NY	Right	Yes	0.848661600000923	0	373039	253
729.4296875	0	taste	response	2	89	29	foodImage.94	FOODEEG_Images\0902.jpg	NY	Right	Yes	0.848661600000923	0	373469	235
730.474609375	1	decision	trialStart	2	90	30	foodImage.52	FOODEEG_Images\0539.jpg	YN	Left	Yes	0.833657199982554	0	374004	251
731.53125	2	decision	foodImageDisplay	2	90	30	foodImage.52	FOODEEG_Images\0539.jpg	YN	Left	Yes	0.833657199982554	0	374545	252
733.59765625	0.833657199982554	decision	choicePhaseStart	2	90	30	foodImage.52	FOODEEG_Images\0539.jpg	YN	Left	Yes	0.833657199982554	0	375603	253
734.421875	0	decision	response	2	90	30	foodImage.52	FOODEEG_Images\0539.jpg	YN	Left	Yes	0.833657199982554	0	376025	234
735.470703125	1	health	trialStart	2	91	31	foodImage.25	FOODEEG_Images\0261.jpg	NY	Right	Yes	1.05452219999279	0	376562	251
736.513671875	2	health	foodImageDisplay	2	91	31	foodImage.25	FOODEEG_Images\0261.jpg	NY	Right	Yes	1.05452219999279	0	377096	252
738.576171875	1.05452219999279	health	choicePhaseStart	2	91	31	foodImage.25	FOODEEG_Images\0261.jpg	NY	Right	Yes	1.05452219999279	0	378152	253
739.623046875	0	health	response	2	91	31	foodImage.25	FOODEEG_Images\0261.jpg	NY	Right	Yes	1.05452219999279	0	378688	235
740.66796875	1	health	trialStart	2	92	32	foodImage.20	FOODEEG_Images\0226.jpg	NY	Right	Yes	1.01743409998016	0	379223	251
741.7109375	2	health	foodImageDisplay	2	92	32	foodImage.20	FOODEEG_Images\0226.jpg	NY	Right	Yes	1.01743409998016	0	379757	252
743.7734375	1.01743409998016	health	choicePhaseStart	2	92	32	foodImage.20	FOODEEG_Images\0226.jpg	NY	Right	Yes	1.01743409998016	0	380813	253
744.783203125	0	health	response	2	92	32	foodImage.20	FOODEEG_Images\0226.jpg	NY	Right	Yes	1.01743409998016	0	381330	235
745.826171875	1	decision	trialStart	2	93	33	foodImage.35	FOODEEG_Images\0350.jpg	NY	Right	Yes	0.620065299997805	0	381864	251
746.8671875	2	decision	foodImageDisplay	2	93	33	foodImage.35	FOODEEG_Images\0350.jpg	NY	Right	Yes	0.620065299997805	0	382397	252
748.931640625	0.620065299997805	decision	choicePhaseStart	2	93	33	foodImage.35	FOODEEG_Images\0350.jpg	NY	Right	Yes	0.620065299997805	0	383454	253
749.54296875	0	decision	response	2	93	33	foodImage.35	FOODEEG_Images\0350.jpg	NY	Right	Yes	0.620065299997805	0	383767	235
750.583984375	1	health	trialStart	2	94	34	foodImage.14	FOODEEG_Images\0188.jpg	YN	Left	Yes	1.38398880002205	0	384300	251
751.64453125	2	health	foodImageDisplay	2	94	34	foodImage.14	FOODEEG_Images\0188.jpg	YN	Left	Yes	1.38398880002205	0	384843	252
753.708984375	1.38398880002205	health	choicePhaseStart	2	94	34	foodImage.14	FOODEEG_Images\0188.jpg	YN	Left	Yes	1.38398880002205	0	385900	253
755.0859375	0	health	response	2	94	34	foodImage.14	FOODEEG_Images\0188.jpg	YN	Left	Yes	1.38398880002205	0	386605	234
756.12890625	1	taste	trialStart	2	95	35	foodImage.10	FOODEEG_Images\0145.jpg	NY	Right	Yes	0.78865709999809	0	387139	251
757.185546875	2	taste	foodImageDisplay	2	95	35	foodImage.10	FOODEEG_Images\0145.jpg	NY	Right	Yes	0.78865709999809	0	387680	252
759.248046875	0.78865709999809	taste	choicePhaseStart	2	95	35	foodImage.10	FOODEEG_Images\0145.jpg	NY	Right	Yes	0.78865709999809	0	388736	253
760.029296875	0	taste	response	2	95	35	foodImage.10	FOODEEG_Images\0145.jpg	NY	Right	Yes	0.78865709999809	0	389136	235
761.07421875	1	health	trialStart	2	96	36	foodImage.90	FOODEEG_Images\0890.jpg	YN	Right	No	0.912104899995029	0	389671	251
762.1328125	2	health	foodImageDisplay	2	96	36	foodImage.90	FOODEEG_Images\0890.jpg	YN	Right	No	0.912104899995029	0	390213	252
764.197265625	0.912104899995029	health	choicePhaseStart	2	96	36	foodImage.90	FOODEEG_Images\0890.jpg	YN	Right	No	0.912104899995029	0	391270	253
765.1015625	0	health	response	2	96	36	foodImage.90	FOODEEG_Images\0890.jpg	YN	Right	No	0.912104899995029	0	391733	235
766.14453125	1	health	trialStart	2	97	37	foodImage.98	FOODEEG_Images\0906.jpg	NY	Right	Yes	2.09561499999836	0	392267	251
767.18359375	2	health	foodImageDisplay	2	97	37	foodImage.98	FOODEEG_Images\0906.jpg	NY	Right	Yes	2.09561499999836	0	392799	252
769.24609375	2.09561499999836	health	choicePhaseStart	2	97	37	foodImage.98	FOODEEG_Images\0906.jpg	NY	Right	Yes	2.09561499999836	0	393855	253
771.333984375	0	health	response	2	97	37	foodImage.98	FOODEEG_Images\0906.jpg	NY	Right	Yes	2.09561499999836	0	394924	235
772.376953125	1	health	trialStart	2	98	38	foodImage.65	FOODEEG_Images\0658.jpg	YN	Right	No	0.907607000001008	0	395458	251
773.41796875	2	health	foodImageDisplay	2	98	38	foodImage.65	FOODEEG_Images\0658.jpg	YN	Right	No	0.907607000001008	0	395991	252
775.482421875	0.907607000001008	health	choicePhaseStart	2	98	38	foodImage.65	FOODEEG_Images\0658.jpg	YN	Right	No	0.907607000001008	0	397048	253
776.380859375	0	health	response	2	98	38	foodImage.65	FOODEEG_Images\0658.jpg	YN	Right	No	0.907607000001008	0	397508	235
777.423828125	1	taste	trialStart	2	99	39	foodImage.6	FOODEEG_Images\0113.jpg	YN	Left	Yes	0.620228599989787	0	398042	251
778.46484375	2	taste	foodImageDisplay	2	99	39	foodImage.6	FOODEEG_Images\0113.jpg	YN	Left	Yes	0.620228599989787	0	398575	252
780.529296875	0.620228599989787	taste	choicePhaseStart	2	99	39	foodImage.6	FOODEEG_Images\0113.jpg	YN	Left	Yes	0.620228599989787	0	399632	253
781.140625	0	taste	response	2	99	39	foodImage.6	FOODEEG_Images\0113.jpg	YN	Left	Yes	0.620228599989787	0	399945	234
782.18359375	1	decision	trialStart	2	100	40	foodImage.120	FOODEEG_Images\0928.jpg	YN	Right	No	0.784387799998512	0	400479	251
783.22265625	2	decision	foodImageDisplay	2	100	40	foodImage.120	FOODEEG_Images\0928.jpg	YN	Right	No	0.784387799998512	0	401011	252
785.28515625	0.784387799998512	decision	choicePhaseStart	2	100	40	foodImage.120	FOODEEG_Images\0928.jpg	YN	Right	No	0.784387799998512	0	402067	253
786.060546875	0	decision	response	2	100	40	foodImage.120	FOODEEG_Images\0928.jpg	YN	Right	No	0.784387799998512	0	402464	235
787.103515625	1	taste	trialStart	2	101	41	foodImage.82	FOODEEG_Images\0805.jpg	NY	Left	No	1.30075649998616	0	402998	251
788.16015625	2	taste	foodImageDisplay	2	101	41	foodImage.82	FOODEEG_Images\0805.jpg	NY	Left	No	1.30075649998616	0	403539	252
790.22265625	1.30075649998616	taste	choicePhaseStart	2	101	41	foodImage.82	FOODEEG_Images\0805.jpg	NY	Left	No	1.30075649998616	0	404595	253
791.515625	0	taste	response	2	101	41	foodImage.82	FOODEEG_Images\0805.jpg	NY	Left	No	1.30075649998616	0	405257	234
792.556640625	1	taste	trialStart	2	102	42	foodImage.114	FOODEEG_Images\0922.jpg	YN	Right	No	0.617994500003988	0	405790	251
793.595703125	2	taste	foodImageDisplay	2	102	42	foodImage.114	FOODEEG_Images\0922.jpg	YN	Right	No	0.617994500003988	0	406322	252
795.658203125	0.617994500003988	taste	choicePhaseStart	2	102	42	foodImage.114	FOODEEG_Images\0922.jpg	YN	Right	No	0.617994500003988	0	407378	253
796.267578125	0	taste	response	2	102	42	foodImage.114	FOODEEG_Images\0922.jpg	YN	Right	No	0.617994500003988	0	407690	235
797.310546875	1	taste	trialStart	2	103	43	foodImage.111	FOODEEG_Images\0919.jpg	YN	Right	No	0.854721299983794	0	408224	251
798.349609375	2	taste	foodImageDisplay	2	103	43	foodImage.111	FOODEEG_Images\0919.jpg	YN	Right	No	0.854721299983794	0	408756	252
800.4140625	0.854721299983794	taste	choicePhaseStart	2	103	43	foodImage.111	FOODEEG_Images\0919.jpg	YN	Right	No	0.854721299983794	0	409813	253
801.259765625	0	taste	response	2	103	43	foodImage.111	FOODEEG_Images\0919.jpg	YN	Right	No	0.854721299983794	0	410246	235
802.30859375	1	taste	trialStart	2	104	44	foodImage.52	FOODEEG_Images\0539.jpg	YN	Left	Yes	0.582635400001891	0	410783	251
803.3671875	2	taste	foodImageDisplay	2	104	44	foodImage.52	FOODEEG_Images\0539.jpg	YN	Left	Yes	0.582635400001891	0	411325	252
805.4296875	0.582635400001891	taste	choicePhaseStart	2	104	44	foodImage.52	FOODEEG_Images\0539.jpg	YN	Left	Yes	0.582635400001891	0	412381	253
806.00390625	0	taste	response	2	104	44	foodImage.52	FOODEEG_Images\0539.jpg	YN	Left	Yes	0.582635400001891	0	412675	234
807.046875	1	decision	trialStart	2	105	45	foodImage.118	FOODEEG_Images\0926.jpg	YN	Left	Yes	0.767696399998385	0	413209	251
808.0859375	2	decision	foodImageDisplay	2	105	45	foodImage.118	FOODEEG_Images\0926.jpg	YN	Left	Yes	0.767696399998385	0	413741	252
810.1484375	0.767696399998385	decision	choicePhaseStart	2	105	45	foodImage.118	FOODEEG_Images\0926.jpg	YN	Left	Yes	0.767696399998385	0	414797	253
810.908203125	0	decision	response	2	105	45	foodImage.118	FOODEEG_Images\0926.jpg	YN	Left	Yes	0.767696399998385	0	415186	234
811.951171875	1	taste	trialStart	2	106	46	foodImage.119	FOODEEG_Images\0927.jpg	YN	Right	No	0.788366799999494	0	415720	251
812.990234375	2	taste	foodImageDisplay	2	106	46	foodImage.119	FOODEEG_Images\0927.jpg	YN	Right	No	0.788366799999494	0	416252	252
815.052734375	0.788366799999494	taste	choicePhaseStart	2	106	46	foodImage.119	FOODEEG_Images\0927.jpg	YN	Right	No	0.788366799999494	0	417308	253
815.8359375	0	taste	response	2	106	46	foodImage.119	FOODEEG_Images\0927.jpg	YN	Right	No	0.788366799999494	0	417709	235
816.87890625	1	health	trialStart	2	107	47	foodImage.72	FOODEEG_Images\0714.jpg	NY	Left	No	1.4881506000238	0	418243	251
817.935546875	2	health	foodImageDisplay	2	107	47	foodImage.72	FOODEEG_Images\0714.jpg	NY	Left	No	1.4881506000238	0	418784	252
820.00390625	1.4881506000238	health	choicePhaseStart	2	107	47	foodImage.72	FOODEEG_Images\0714.jpg	NY	Left	No	1.4881506000238	0	419843	253
821.482421875	0	health	response	2	107	47	foodImage.72	FOODEEG_Images\0714.jpg	NY	Left	No	1.4881506000238	0	420600	234
822.52734375	1	decision	trialStart	2	108	48	foodImage.106	FOODEEG_Images\0914.jpg	YN	Right	No	0.694406900001923	0	421135	251
823.56640625	2	decision	foodImageDisplay	2	108	48	foodImage.106	FOODEEG_Images\0914.jpg	YN	Right	No	0.694406900001923	0	421667	252
825.630859375	0.694406900001923	decision	choicePhaseStart	2	108	48	foodImage.106	FOODEEG_Images\0914.jpg	YN	Right	No	0.694406900001923	0	422724	253
826.314453125	0	decision	response	2	108	48	foodImage.106	FOODEEG_Images\0914.jpg	YN	Right	No	0.694406900001923	0	423074	235
827.357421875	1	decision	trialStart	2	109	49	foodImage.41	FOODEEG_Images\0409.jpg	YN	Left	Yes	0.686886299983598	0	423608	251
828.404296875	2	decision	foodImageDisplay	2	109	49	foodImage.41	FOODEEG_Images\0409.jpg	YN	Left	Yes	0.686886299983598	0	424144	252
830.46875	0.686886299983598	decision	choicePhaseStart	2	109	49	foodImage.41	FOODEEG_Images\0409.jpg	YN	Left	Yes	0.686886299983598	0	425201	253
831.146484375	0	decision	response	2	109	49	foodImage.41	FOODEEG_Images\0409.jpg	YN	Left	Yes	0.686886299983598	0	425548	234
832.189453125	1	taste	trialStart	2	110	50	foodImage.39	FOODEEG_Images\0367.jpg	YN	Left	Yes	0.646168900013436	0	426082	251
833.23046875	2	taste	foodImageDisplay	2	110	50	foodImage.39	FOODEEG_Images\0367.jpg	YN	Left	Yes	0.646168900013436	0	426615	252
835.29296875	0.646168900013436	taste	choicePhaseStart	2	110	50	foodImage.39	FOODEEG_Images\0367.jpg	YN	Left	Yes	0.646168900013436	0	427671	253
835.9296875	0	taste	response	2	110	50	foodImage.39	FOODEEG_Images\0367.jpg	YN	Left	Yes	0.646168900013436	0	427997	234
836.97265625	1	taste	trialStart	2	111	51	foodImage.58	FOODEEG_Images\0605.jpg	YN	Left	Yes	0.600804499990772	0	428531	251
838.03515625	2	taste	foodImageDisplay	2	111	51	foodImage.58	FOODEEG_Images\0605.jpg	YN	Left	Yes	0.600804499990772	0	429075	252
840.09765625	0.600804499990772	taste	choicePhaseStart	2	111	51	foodImage.58	FOODEEG_Images\0605.jpg	YN	Left	Yes	0.600804499990772	0	430131	253
840.689453125	0	taste	response	2	111	51	foodImage.58	FOODEEG_Images\0605.jpg	YN	Left	Yes	0.600804499990772	0	430434	234
841.734375	1	taste	trialStart	2	112	52	foodImage.3	FOODEEG_Images\0046.jpg	YN	Left	Yes	0.731025400018552	0	430969	251
842.77734375	2	taste	foodImageDisplay	2	112	52	foodImage.3	FOODEEG_Images\0046.jpg	YN	Left	Yes	0.731025400018552	0	431503	252
844.83984375	0.731025400018552	taste	choicePhaseStart	2	112	52	foodImage.3	FOODEEG_Images\0046.jpg	YN	Left	Yes	0.731025400018552	0	432559	253
845.5625	0	taste	response	2	112	52	foodImage.3	FOODEEG_Images\0046.jpg	YN	Left	Yes	0.731025400018552	0	432929	234
846.60546875	1	decision	trialStart	2	113	53	foodImage.104	FOODEEG_Images\0912.jpg	YN	Left	Yes	0.687579899997218	0	433463	251
847.64453125	2	decision	foodImageDisplay	2	113	53	foodImage.104	FOODEEG_Images\0912.jpg	YN	Left	Yes	0.687579899997218	0	433995	252
849.70703125	0.687579899997218	decision	choicePhaseStart	2	113	53	foodImage.104	FOODEEG_Images\0912.jpg	YN	Left	Yes	0.687579899997218	0	435051	253
850.38671875	0	decision	response	2	113	53	foodImage.104	FOODEEG_Images\0912.jpg	YN	Left	Yes	0.687579899997218	0	435399	234
851.4296875	1	decision	trialStart	2	114	54	foodImage.67	FOODEEG_Images\0679.jpg	YN	Right	No	0.683810499991523	0	435933	251
852.48828125	2	decision	foodImageDisplay	2	114	54	foodImage.67	FOODEEG_Images\0679.jpg	YN	Right	No	0.683810499991523	0	436475	252
854.55078125	0.683810499991523	decision	choicePhaseStart	2	114	54	foodImage.67	FOODEEG_Images\0679.jpg	YN	Right	No	0.683810499991523	0	437531	253
855.2265625	0	decision	response	2	114	54	foodImage.67	FOODEEG_Images\0679.jpg	YN	Right	No	0.683810499991523	0	437877	235
856.26953125	1	health	trialStart	2	115	55	foodImage.54	FOODEEG_Images\0560.jpg	NY	Right	Yes	0.793946199992206	0	438411	251
857.328125	2	health	foodImageDisplay	2	115	55	foodImage.54	FOODEEG_Images\0560.jpg	NY	Right	Yes	0.793946199992206	0	438953	252
859.392578125	0.793946199992206	health	choicePhaseStart	2	115	55	foodImage.54	FOODEEG_Images\0560.jpg	NY	Right	Yes	0.793946199992206	0	440010	253
860.177734375	0	health	response	2	115	55	foodImage.54	FOODEEG_Images\0560.jpg	NY	Right	Yes	0.793946199992206	0	440412	235
861.220703125	1	health	trialStart	2	116	56	foodImage.103	FOODEEG_Images\0911.jpg	YN	Left	Yes	0.862970699992729	0	440946	251
862.259765625	2	health	foodImageDisplay	2	116	56	foodImage.103	FOODEEG_Images\0911.jpg	YN	Left	Yes	0.862970699992729	0	441478	252
864.32421875	0.862970699992729	health	choicePhaseStart	2	116	56	foodImage.103	FOODEEG_Images\0911.jpg	YN	Left	Yes	0.862970699992729	0	442535	253
865.177734375	0	health	response	2	116	56	foodImage.103	FOODEEG_Images\0911.jpg	YN	Left	Yes	0.862970699992729	0	442972	234
866.220703125	1	decision	trialStart	2	117	57	foodImage.20	FOODEEG_Images\0226.jpg	YN	Left	Yes	0.871958600007929	0	443506	251
867.263671875	2	decision	foodImageDisplay	2	117	57	foodImage.20	FOODEEG_Images\0226.jpg	YN	Left	Yes	0.871958600007929	0	444040	252
869.330078125	0.871958600007929	decision	choicePhaseStart	2	117	57	foodImage.20	FOODEEG_Images\0226.jpg	YN	Left	Yes	0.871958600007929	0	445098	253
870.193359375	0	decision	response	2	117	57	foodImage.20	FOODEEG_Images\0226.jpg	YN	Left	Yes	0.871958600007929	0	445540	234
871.240234375	1	taste	trialStart	2	118	58	foodImage.92	FOODEEG_Images\0900.jpg	NY	Left	No	0.899090199993225	0	446076	251
872.279296875	2	taste	foodImageDisplay	2	118	58	foodImage.92	FOODEEG_Images\0900.jpg	NY	Left	No	0.899090199993225	0	446608	252
874.34375	0.899090199993225	taste	choicePhaseStart	2	118	58	foodImage.92	FOODEEG_Images\0900.jpg	NY	Left	No	0.899090199993225	0	447665	253
875.232421875	0	taste	response	2	118	58	foodImage.92	FOODEEG_Images\0900.jpg	NY	Left	No	0.899090199993225	0	448120	234
876.275390625	1	health	trialStart	2	119	59	foodImage.69	FOODEEG_Images\0693.jpg	YN	Left	Yes	1.08962030001567	0	448654	251
877.31640625	2	health	foodImageDisplay	2	119	59	foodImage.69	FOODEEG_Images\0693.jpg	YN	Left	Yes	1.08962030001567	0	449187	252
879.384765625	1.08962030001567	health	choicePhaseStart	2	119	59	foodImage.69	FOODEEG_Images\0693.jpg	YN	Left	Yes	1.08962030001567	0	450246	253
880.46484375	0	health	response	2	119	59	foodImage.69	FOODEEG_Images\0693.jpg	YN	Left	Yes	1.08962030001567	0	450799	234
881.5078125	1	health	trialStart	2	120	60	foodImage.95	FOODEEG_Images\0903.jpg	NY	Left	No	1.08195330001763	0	451333	251
882.544921875	2	health	foodImageDisplay	2	120	60	foodImage.95	FOODEEG_Images\0903.jpg	NY	Left	No	1.08195330001763	0	451864	252
884.607421875	1.08195330001763	health	choicePhaseStart	2	120	60	foodImage.95	FOODEEG_Images\0903.jpg	NY	Left	No	1.08195330001763	0	452920	253
885.681640625	0	health	response	2	120	60	foodImage.95	FOODEEG_Images\0903.jpg	NY	Left	No	1.08195330001763	0	453470	234
887.724609375	22.814453125	n/a	blockEnd	n/a	n/a	n/a	n/a	n/a	n/a	n/a	n/a	n/a	n/a	454516	254
910.5390625	2	n/a	blockStart	3	n/a	n/a	n/a	n/a	n/a	n/a	n/a	n/a	n/a	466197	250
912.57421875	1	taste	trialStart	3	121	1	foodImage.79	FOODEEG_Images\0794.jpg	YN	Right	No	1.03706960001728	0	467239	251
913.62109375	2	taste	foodImageDisplay	3	121	1	foodImage.79	FOODEEG_Images\0794.jpg	YN	Right	No	1.03706960001728	0	467775	252
915.68359375	1.03706960001728	taste	choicePhaseStart	3	121	1	foodImage.79	FOODEEG_Images\0794.jpg	YN	Right	No	1.03706960001728	0	468831	253
916.7109375	0	taste	response	3	121	1	foodImage.79	FOODEEG_Images\0794.jpg	YN	Right	No	1.03706960001728	0	469357	235
917.75390625	1	taste	trialStart	3	122	2	foodImage.101	FOODEEG_Images\0909.jpg	NY	Left	No	0.664924299984705	0	469891	251
918.791015625	2	taste	foodImageDisplay	3	122	2	foodImage.101	FOODEEG_Images\0909.jpg	NY	Left	No	0.664924299984705	0	470422	252
920.85546875	0.664924299984705	taste	choicePhaseStart	3	122	2	foodImage.101	FOODEEG_Images\0909.jpg	NY	Left	No	0.664924299984705	0	471479	253
921.51171875	0	taste	response	3	122	2	foodImage.101	FOODEEG_Images\0909.jpg	NY	Left	No	0.664924299984705	0	471815	234
922.5546875	1	taste	trialStart	3	123	3	foodImage.45	FOODEEG_Images\0478.jpg	YN	Left	Yes	0.625523399998201	0	472349	251
923.599609375	2	taste	foodImageDisplay	3	123	3	foodImage.45	FOODEEG_Images\0478.jpg	YN	Left	Yes	0.625523399998201	0	472884	252
925.662109375	0.625523399998201	taste	choicePhaseStart	3	123	3	foodImage.45	FOODEEG_Images\0478.jpg	YN	Left	Yes	0.625523399998201	0	473940	253
926.279296875	0	taste	response	3	123	3	foodImage.45	FOODEEG_Images\0478.jpg	YN	Left	Yes	0.625523399998201	0	474256	234
927.322265625	1	health	trialStart	3	124	4	foodImage.50	FOODEEG_Images\0529.jpg	NY	Right	Yes	0.573263400001451	0	474790	251
928.380859375	2	health	foodImageDisplay	3	124	4	foodImage.50	FOODEEG_Images\0529.jpg	NY	Right	Yes	0.573263400001451	0	475332	252
930.443359375	0.573263400001451	health	choicePhaseStart	3	124	4	foodImage.50	FOODEEG_Images\0529.jpg	NY	Right	Yes	0.573263400001451	0	476388	253
931.0078125	0	health	response	3	124	4	foodImage.50	FOODEEG_Images\0529.jpg	NY	Right	Yes	0.573263400001451	0	476677	235
932.05078125	1	decision	trialStart	3	125	5	foodImage.28	FOODEEG_Images\0273.jpg	YN	Right	No	1.2468513000058	0	477211	251
933.09375	2	decision	foodImageDisplay	3	125	5	foodImage.28	FOODEEG_Images\0273.jpg	YN	Right	No	1.2468513000058	0	477745	252
935.158203125	1.2468513000058	decision	choicePhaseStart	3	125	5	foodImage.28	FOODEEG_Images\0273.jpg	YN	Right	No	1.2468513000058	0	478802	253
936.3984375	0	decision	response	3	125	5	foodImage.28	FOODEEG_Images\0273.jpg	YN	Right	No	1.2468513000058	0	479437	235
937.439453125	1	decision	trialStart	3	126	6	foodImage.62	FOODEEG_Images\0644.jpg	NY	Right	Yes	0.601061900000786	0	479970	251
938.494140625	2	decision	foodImageDisplay	3	126	6	foodImage.62	FOODEEG_Images\0644.jpg	NY	Right	Yes	0.601061900000786	0	480510	252
940.55859375	0.601061900000786	decision	choicePhaseStart	3	126	6	foodImage.62	FOODEEG_Images\0644.jpg	NY	Right	Yes	0.601061900000786	0	481567	253
941.150390625	0	decision	response	3	126	6	foodImage.62	FOODEEG_Images\0644.jpg	NY	Right	Yes	0.601061900000786	0	481870	235
942.193359375	1	decision	trialStart	3	127	7	foodImage.60	FOODEEG_Images\0614.jpg	NY	Right	Yes	0.53710770001635	0	482404	251
943.26171875	2	decision	foodImageDisplay	3	127	7	foodImage.60	FOODEEG_Images\0614.jpg	NY	Right	Yes	0.53710770001635	0	482951	252
945.326171875	0.53710770001635	decision	choicePhaseStart	3	127	7	foodImage.60	FOODEEG_Images\0614.jpg	NY	Right	Yes	0.53710770001635	0	484008	253
945.853515625	0	decision	response	3	127	7	foodImage.60	FOODEEG_Images\0614.jpg	NY	Right	Yes	0.53710770001635	0	484278	235
946.896484375	1	health	trialStart	3	128	8	foodImage.59	FOODEEG_Images\0607.jpg	YN	Left	Yes	1.51672820001841	0	484812	251
947.943359375	2	health	foodImageDisplay	3	128	8	foodImage.59	FOODEEG_Images\0607.jpg	YN	Left	Yes	1.51672820001841	0	485348	252
950.009765625	1.51672820001841	health	choicePhaseStart	3	128	8	foodImage.59	FOODEEG_Images\0607.jpg	YN	Left	Yes	1.51672820001841	0	486406	253
951.517578125	0	health	response	3	128	8	foodImage.59	FOODEEG_Images\0607.jpg	YN	Left	Yes	1.51672820001841	0	487178	234
952.560546875	1	health	trialStart	3	129	9	foodImage.106	FOODEEG_Images\0914.jpg	YN	Right	No	0.961005000019213	0	487712	251
953.599609375	2	health	foodImageDisplay	3	129	9	foodImage.106	FOODEEG_Images\0914.jpg	YN	Right	No	0.961005000019213	0	488244	252
955.662109375	0.961005000019213	health	choicePhaseStart	3	129	9	foodImage.106	FOODEEG_Images\0914.jpg	YN	Right	No	0.961005000019213	0	489300	253
956.61328125	0	health	response	3	129	9	foodImage.106	FOODEEG_Images\0914.jpg	YN	Right	No	0.961005000019213	0	489787	235
957.658203125	1	taste	trialStart	3	130	10	foodImage.120	FOODEEG_Images\0928.jpg	YN	Right	No	0.972929399984423	0	490322	251
958.6953125	2	taste	foodImageDisplay	3	130	10	foodImage.120	FOODEEG_Images\0928.jpg	YN	Right	No	0.972929399984423	0	490853	252
960.7578125	0.972929399984423	taste	choicePhaseStart	3	130	10	foodImage.120	FOODEEG_Images\0928.jpg	YN	Right	No	0.972929399984423	0	491909	253
961.724609375	0	taste	response	3	130	10	foodImage.120	FOODEEG_Images\0928.jpg	YN	Right	No	0.972929399984423	0	492404	235
962.767578125	1	decision	trialStart	3	131	11	foodImage.87	FOODEEG_Images\0873.jpg	YN	Left	Yes	1.00411939999321	0	492938	251
963.826171875	2	decision	foodImageDisplay	3	131	11	foodImage.87	FOODEEG_Images\0873.jpg	YN	Left	Yes	1.00411939999321	0	493480	252
965.890625	1.00411939999321	decision	choicePhaseStart	3	131	11	foodImage.87	FOODEEG_Images\0873.jpg	YN	Left	Yes	1.00411939999321	0	494537	253
966.884765625	0	decision	response	3	131	11	foodImage.87	FOODEEG_Images\0873.jpg	YN	Left	Yes	1.00411939999321	0	495046	234
967.9296875	1	health	trialStart	3	132	12	foodImage.56	FOODEEG_Images\0586.jpg	NY	Left	No	0.88349360000575	0	495581	251
968.970703125	2	health	foodImageDisplay	3	132	12	foodImage.56	FOODEEG_Images\0586.jpg	NY	Left	No	0.88349360000575	0	496114	252
971.03515625	0.88349360000575	health	choicePhaseStart	3	132	12	foodImage.56	FOODEEG_Images\0586.jpg	NY	Left	No	0.88349360000575	0	497171	253
971.91015625	0	health	response	3	132	12	foodImage.56	FOODEEG_Images\0586.jpg	NY	Left	No	0.88349360000575	0	497619	234
972.953125	1	health	trialStart	3	133	13	foodImage.43	FOODEEG_Images\0445.jpg	YN	Left	Yes	1.32053970001289	0	498153	251
974.013671875	2	health	foodImageDisplay	3	133	13	foodImage.43	FOODEEG_Images\0445.jpg	YN	Left	Yes	1.32053970001289	0	498696	252
976.078125	1.32053970001289	health	choicePhaseStart	3	133	13	foodImage.43	FOODEEG_Images\0445.jpg	YN	Left	Yes	1.32053970001289	0	499753	253
977.388671875	0	health	response	3	133	13	foodImage.43	FOODEEG_Images\0445.jpg	YN	Left	Yes	1.32053970001289	0	500424	234
978.43359375	1	taste	trialStart	3	134	14	foodImage.47	FOODEEG_Images\0488.jpg	NY	Right	Yes	0.776237299985951	0	500959	251
979.4765625	2	taste	foodImageDisplay	3	134	14	foodImage.47	FOODEEG_Images\0488.jpg	NY	Right	Yes	0.776237299985951	0	501493	252
981.541015625	0.776237299985951	taste	choicePhaseStart	3	134	14	foodImage.47	FOODEEG_Images\0488.jpg	NY	Right	Yes	0.776237299985951	0	502550	253
982.30859375	0	taste	response	3	134	14	foodImage.47	FOODEEG_Images\0488.jpg	NY	Right	Yes	0.776237299985951	0	502943	235
983.353515625	1	decision	trialStart	3	135	15	foodImage.73	FOODEEG_Images\0717.jpg	YN	Left	Yes	0.996048200002406	0	503478	251
984.4140625	2	decision	foodImageDisplay	3	135	15	foodImage.73	FOODEEG_Images\0717.jpg	YN	Left	Yes	0.996048200002406	0	504021	252
986.482421875	0.996048200002406	decision	choicePhaseStart	3	135	15	foodImage.73	FOODEEG_Images\0717.jpg	YN	Left	Yes	0.996048200002406	0	505080	253
987.46875	0	decision	response	3	135	15	foodImage.73	FOODEEG_Images\0717.jpg	YN	Left	Yes	0.996048200002406	0	505585	234
988.513671875	1	health	trialStart	3	136	16	foodImage.2	FOODEEG_Images\0028.jpg	YN	Right	No	1.06335760001093	0	506120	251
989.5546875	2	health	foodImageDisplay	3	136	16	foodImage.2	FOODEEG_Images\0028.jpg	YN	Right	No	1.06335760001093	0	506653	252
991.62109375	1.06335760001093	health	choicePhaseStart	3	136	16	foodImage.2	FOODEEG_Images\0028.jpg	YN	Right	No	1.06335760001093	0	507711	253
992.67578125	0	health	response	3	136	16	foodImage.2	FOODEEG_Images\0028.jpg	YN	Right	No	1.06335760001093	0	508251	235
993.71875	1	health	trialStart	3	137	17	foodImage.97	FOODEEG_Images\0905.jpg	YN	Right	No	0.975920199998654	0	508785	251
994.7578125	2	health	foodImageDisplay	3	137	17	foodImage.97	FOODEEG_Images\0905.jpg	YN	Right	No	0.975920199998654	0	509317	252
996.822265625	0.975920199998654	health	choicePhaseStart	3	137	17	foodImage.97	FOODEEG_Images\0905.jpg	YN	Right	No	0.975920199998654	0	510374	253
997.7890625	0	health	response	3	137	17	foodImage.97	FOODEEG_Images\0905.jpg	YN	Right	No	0.975920199998654	0	510869	235
998.83203125	1	health	trialStart	3	138	18	foodImage.113	FOODEEG_Images\0921.jpg	YN	Left	Yes	1.20892110001296	0	511403	251
999.869140625	2	health	foodImageDisplay	3	138	18	foodImage.113	FOODEEG_Images\0921.jpg	YN	Left	Yes	1.20892110001296	0	511934	252
1001.931640625	1.20892110001296	health	choicePhaseStart	3	138	18	foodImage.113	FOODEEG_Images\0921.jpg	YN	Left	Yes	1.20892110001296	0	512990	253
1003.1328125	0	health	response	3	138	18	foodImage.113	FOODEEG_Images\0921.jpg	YN	Left	Yes	1.20892110001296	0	513605	234
1004.171875	1	decision	trialStart	3	139	19	foodImage.37	FOODEEG_Images\0359.jpg	NY	Right	Yes	1.19850100000622	0	514137	251
1005.21484375	2	decision	foodImageDisplay	3	139	19	foodImage.37	FOODEEG_Images\0359.jpg	NY	Right	Yes	1.19850100000622	0	514671	252
1007.279296875	1.19850100000622	decision	choicePhaseStart	3	139	19	foodImage.37	FOODEEG_Images\0359.jpg	NY	Right	Yes	1.19850100000622	0	515728	253
1008.466796875	0	decision	response	3	139	19	foodImage.37	FOODEEG_Images\0359.jpg	NY	Right	Yes	1.19850100000622	0	516336	235
1009.509765625	1	taste	trialStart	3	140	20	foodImage.23	FOODEEG_Images\0244.jpg	YN	Left	Yes	0.734201399987796	0	516870	251
1010.552734375	2	taste	foodImageDisplay	3	140	20	foodImage.23	FOODEEG_Images\0244.jpg	YN	Left	Yes	0.734201399987796	0	517404	252
1012.62109375	0.734201399987796	taste	choicePhaseStart	3	140	20	foodImage.23	FOODEEG_Images\0244.jpg	YN	Left	Yes	0.734201399987796	0	518463	253
1013.34765625	0	taste	response	3	140	20	foodImage.23	FOODEEG_Images\0244.jpg	YN	Left	Yes	0.734201399987796	0	518835	234
1014.390625	1	health	trialStart	3	141	21	foodImage.34	FOODEEG_Images\0339.jpg	YN	Right	No	0.956321200006641	0	519369	251
1015.474609375	2	health	foodImageDisplay	3	141	21	foodImage.34	FOODEEG_Images\0339.jpg	YN	Right	No	0.956321200006641	0	519924	252
1017.537109375	0.956321200006641	health	choicePhaseStart	3	141	21	foodImage.34	FOODEEG_Images\0339.jpg	YN	Right	No	0.956321200006641	0	520980	253
1018.482421875	0	health	response	3	141	21	foodImage.34	FOODEEG_Images\0339.jpg	YN	Right	No	0.956321200006641	0	521464	235
1019.52734375	1	taste	trialStart	3	142	22	foodImage.61	FOODEEG_Images\0640.jpg	NY	Left	No	1.90722019999521	0	521999	251
1020.568359375	2	taste	foodImageDisplay	3	142	22	foodImage.61	FOODEEG_Images\0640.jpg	NY	Left	No	1.90722019999521	0	522532	252
1022.6328125	1.90722019999521	taste	choicePhaseStart	3	142	22	foodImage.61	FOODEEG_Images\0640.jpg	NY	Left	No	1.90722019999521	0	523589	253
1024.53125	0	taste	response	3	142	22	foodImage.61	FOODEEG_Images\0640.jpg	NY	Left	No	1.90722019999521	0	524561	234
1025.57421875	1	health	trialStart	3	143	23	foodImage.24	FOODEEG_Images\0250.jpg	YN	Left	Yes	0.610556100000395	0	525095	251
1026.623046875	2	health	foodImageDisplay	3	143	23	foodImage.24	FOODEEG_Images\0250.jpg	YN	Left	Yes	0.610556100000395	0	525632	252
1028.6875	0.610556100000395	health	choicePhaseStart	3	143	23	foodImage.24	FOODEEG_Images\0250.jpg	YN	Left	Yes	0.610556100000395	0	526689	253
1029.291015625	0	health	response	3	143	23	foodImage.24	FOODEEG_Images\0250.jpg	YN	Left	Yes	0.610556100000395	0	526998	234
1030.333984375	1	health	trialStart	3	144	24	foodImage.26	FOODEEG_Images\0262.jpg	NY	Right	Yes	1.01176880000276	0	527532	251
1031.375	2	health	foodImageDisplay	3	144	24	foodImage.26	FOODEEG_Images\0262.jpg	NY	Right	Yes	1.01176880000276	0	528065	252
1033.439453125	1.01176880000276	health	choicePhaseStart	3	144	24	foodImage.26	FOODEEG_Images\0262.jpg	NY	Right	Yes	1.01176880000276	0	529122	253
1034.443359375	0	health	response	3	144	24	foodImage.26	FOODEEG_Images\0262.jpg	NY	Right	Yes	1.01176880000276	0	529636	235
1035.486328125	1	health	trialStart	3	145	25	foodImage.71	FOODEEG_Images\0713.jpg	NY	Left	No	1.04303900001105	0	530170	251
1036.529296875	2	health	foodImageDisplay	3	145	25	foodImage.71	FOODEEG_Images\0713.jpg	NY	Left	No	1.04303900001105	0	530704	252
1038.591796875	1.04303900001105	health	choicePhaseStart	3	145	25	foodImage.71	FOODEEG_Images\0713.jpg	NY	Left	No	1.04303900001105	0	531760	253
1039.626953125	0	health	response	3	145	25	foodImage.71	FOODEEG_Images\0713.jpg	NY	Left	No	1.04303900001105	0	532290	234
1040.66796875	1	taste	trialStart	3	146	26	foodImage.7	FOODEEG_Images\0116.jpg	NY	Right	Yes	0.79256030000397	0	532823	251
1041.73046875	2	taste	foodImageDisplay	3	146	26	foodImage.7	FOODEEG_Images\0116.jpg	NY	Right	Yes	0.79256030000397	0	533367	252
1043.794921875	0.79256030000397	taste	choicePhaseStart	3	146	26	foodImage.7	FOODEEG_Images\0116.jpg	NY	Right	Yes	0.79256030000397	0	534424	253
1044.578125	0	taste	response	3	146	26	foodImage.7	FOODEEG_Images\0116.jpg	NY	Right	Yes	0.79256030000397	0	534825	235
1045.626953125	1	health	trialStart	3	147	27	foodImage.38	FOODEEG_Images\0365.jpg	NY	Right	Yes	1.04140430002008	0	535362	251
1046.666015625	2	health	foodImageDisplay	3	147	27	foodImage.38	FOODEEG_Images\0365.jpg	NY	Right	Yes	1.04140430002008	0	535894	252
1048.73046875	1.04140430002008	health	choicePhaseStart	3	147	27	foodImage.38	FOODEEG_Images\0365.jpg	NY	Right	Yes	1.04140430002008	0	536951	253
1049.76171875	0	health	response	3	147	27	foodImage.38	FOODEEG_Images\0365.jpg	NY	Right	Yes	1.04140430002008	0	537479	235
1050.806640625	1	taste	trialStart	3	148	28	foodImage.81	FOODEEG_Images\0797.jpg	YN	Right	No	1.18730010002037	0	538014	251
1051.86328125	2	taste	foodImageDisplay	3	148	28	foodImage.81	FOODEEG_Images\0797.jpg	YN	Right	No	1.18730010002037	0	538555	252
1053.927734375	1.18730010002037	taste	choicePhaseStart	3	148	28	foodImage.81	FOODEEG_Images\0797.jpg	YN	Right	No	1.18730010002037	0	539612	253
1055.10546875	0	taste	response	3	148	28	foodImage.81	FOODEEG_Images\0797.jpg	YN	Right	No	1.18730010002037	0	540215	235
1056.154296875	1	decision	trialStart	3	149	29	foodImage.42	FOODEEG_Images\0438.jpg	YN	Left	Yes	0.753120599983959	0	540752	251
1057.244140625	2	decision	foodImageDisplay	3	149	29	foodImage.42	FOODEEG_Images\0438.jpg	YN	Left	Yes	0.753120599983959	0	541310	252
1059.306640625	0.753120599983959	decision	choicePhaseStart	3	149	29	foodImage.42	FOODEEG_Images\0438.jpg	YN	Left	Yes	0.753120599983959	0	542366	253
1060.048828125	0	decision	response	3	149	29	foodImage.42	FOODEEG_Images\0438.jpg	YN	Left	Yes	0.753120599983959	0	542746	234
1061.091796875	1	decision	trialStart	3	150	30	foodImage.40	FOODEEG_Images\0373.jpg	NY	Right	Yes	0.60358759999508	0	543280	251
1062.134765625	2	decision	foodImageDisplay	3	150	30	foodImage.40	FOODEEG_Images\0373.jpg	NY	Right	Yes	0.60358759999508	0	543814	252
1064.19921875	0.60358759999508	decision	choicePhaseStart	3	150	30	foodImage.40	FOODEEG_Images\0373.jpg	NY	Right	Yes	0.60358759999508	0	544871	253
1064.79296875	0	decision	response	3	150	30	foodImage.40	FOODEEG_Images\0373.jpg	NY	Right	Yes	0.60358759999508	0	545175	235
1065.837890625	1	decision	trialStart	3	151	31	foodImage.12	FOODEEG_Images\0181.jpg	YN	Left	Yes	0.71659849997377	0	545710	251
1066.87890625	2	decision	foodImageDisplay	3	151	31	foodImage.12	FOODEEG_Images\0181.jpg	YN	Left	Yes	0.71659849997377	0	546243	252
1068.943359375	0.71659849997377	decision	choicePhaseStart	3	151	31	foodImage.12	FOODEEG_Images\0181.jpg	YN	Left	Yes	0.71659849997377	0	547300	253
1069.650390625	0	decision	response	3	151	31	foodImage.12	FOODEEG_Images\0181.jpg	YN	Left	Yes	0.71659849997377	0	547662	234
1070.6953125	1	decision	trialStart	3	152	32	foodImage.81	FOODEEG_Images\0797.jpg	NY	Left	No	0.728224200021941	0	548197	251
1071.76171875	2	decision	foodImageDisplay	3	152	32	foodImage.81	FOODEEG_Images\0797.jpg	NY	Left	No	0.728224200021941	0	548743	252
1073.826171875	0.728224200021941	decision	choicePhaseStart	3	152	32	foodImage.81	FOODEEG_Images\0797.jpg	NY	Left	No	0.728224200021941	0	549800	253
1074.544921875	0	decision	response	3	152	32	foodImage.81	FOODEEG_Images\0797.jpg	NY	Left	No	0.728224200021941	0	550168	234
1075.5859375	1	health	trialStart	3	153	33	foodImage.108	FOODEEG_Images\0916.jpg	YN	Right	No	1.29804880000302	0	550701	251
1076.625	2	health	foodImageDisplay	3	153	33	foodImage.108	FOODEEG_Images\0916.jpg	YN	Right	No	1.29804880000302	0	551233	252
1078.6875	1.29804880000302	health	choicePhaseStart	3	153	33	foodImage.108	FOODEEG_Images\0916.jpg	YN	Right	No	1.29804880000302	0	552289	253
1079.9765625	0	health	response	3	153	33	foodImage.108	FOODEEG_Images\0916.jpg	YN	Right	No	1.29804880000302	0	552949	235
1081.01953125	1	health	trialStart	3	154	34	foodImage.117	FOODEEG_Images\0925.jpg	NY	Left	No	0.81621640000958	0	553483	251
1082.05859375	2	health	foodImageDisplay	3	154	34	foodImage.117	FOODEEG_Images\0925.jpg	NY	Left	No	0.81621640000958	0	554015	252
1084.123046875	0.81621640000958	health	choicePhaseStart	3	154	34	foodImage.117	FOODEEG_Images\0925.jpg	NY	Left	No	0.81621640000958	0	555072	253
1084.9296875	0	health	response	3	154	34	foodImage.117	FOODEEG_Images\0925.jpg	NY	Left	No	0.81621640000958	0	555485	234
1085.97265625	1	decision	trialStart	3	155	35	foodImage.108	FOODEEG_Images\0916.jpg	YN	Right	No	0.731935099989641	0	556019	251
1087.01171875	2	decision	foodImageDisplay	3	155	35	foodImage.108	FOODEEG_Images\0916.jpg	YN	Right	No	0.731935099989641	0	556551	252
1089.07421875	0.731935099989641	decision	choicePhaseStart	3	155	35	foodImage.108	FOODEEG_Images\0916.jpg	YN	Right	No	0.731935099989641	0	557607	253
1089.80078125	0	decision	response	3	155	35	foodImage.108	FOODEEG_Images\0916.jpg	YN	Right	No	0.731935099989641	0	557979	235
1090.84375	1	taste	trialStart	3	156	36	foodImage.51	FOODEEG_Images\0536.jpg	YN	Left	Yes	0.741198000003351	0	558513	251
1091.888671875	2	taste	foodImageDisplay	3	156	36	foodImage.51	FOODEEG_Images\0536.jpg	YN	Left	Yes	0.741198000003351	0	559048	252
1093.95703125	0.741198000003351	taste	choicePhaseStart	3	156	36	foodImage.51	FOODEEG_Images\0536.jpg	YN	Left	Yes	0.741198000003351	0	560107	253
1094.689453125	0	taste	response	3	156	36	foodImage.51	FOODEEG_Images\0536.jpg	YN	Left	Yes	0.741198000003351	0	560482	234
1095.732421875	1	taste	trialStart	3	157	37	foodImage.22	FOODEEG_Images\0236.jpg	NY	Right	Yes	0.569593399995938	0	561016	251
1096.79296875	2	taste	foodImageDisplay	3	157	37	foodImage.22	FOODEEG_Images\0236.jpg	NY	Right	Yes	0.569593399995938	0	561559	252
1098.85546875	0.569593399995938	taste	choicePhaseStart	3	157	37	foodImage.22	FOODEEG_Images\0236.jpg	NY	Right	Yes	0.569593399995938	0	562615	253
1099.416015625	0	taste	response	3	157	37	foodImage.22	FOODEEG_Images\0236.jpg	NY	Right	Yes	0.569593399995938	0	562902	235
1100.458984375	1	decision	trialStart	3	158	38	foodImage.102	FOODEEG_Images\0910.jpg	NY	Right	Yes	0.851310500002	0	563436	251
1101.5	2	decision	foodImageDisplay	3	158	38	foodImage.102	FOODEEG_Images\0910.jpg	NY	Right	Yes	0.851310500002	0	563969	252
1103.56640625	0.851310500002	decision	choicePhaseStart	3	158	38	foodImage.102	FOODEEG_Images\0910.jpg	NY	Right	Yes	0.851310500002	0	565027	253
1104.408203125	0	decision	response	3	158	38	foodImage.102	FOODEEG_Images\0910.jpg	NY	Right	Yes	0.851310500002	0	565458	235
1105.451171875	1	taste	trialStart	3	159	39	foodImage.87	FOODEEG_Images\0873.jpg	YN	Left	Yes	0.803430200001458	0	565992	251
1106.509765625	2	taste	foodImageDisplay	3	159	39	foodImage.87	FOODEEG_Images\0873.jpg	YN	Left	Yes	0.803430200001458	0	566534	252
1108.57421875	0.803430200001458	taste	choicePhaseStart	3	159	39	foodImage.87	FOODEEG_Images\0873.jpg	YN	Left	Yes	0.803430200001458	0	567591	253
1109.3671875	0	taste	response	3	159	39	foodImage.87	FOODEEG_Images\0873.jpg	YN	Left	Yes	0.803430200001458	0	567997	234
1110.41015625	1	decision	trialStart	3	160	40	foodImage.110	FOODEEG_Images\0918.jpg	YN	Left	Yes	1.2289671000035	0	568531	251
1111.451171875	2	decision	foodImageDisplay	3	160	40	foodImage.110	FOODEEG_Images\0918.jpg	YN	Left	Yes	1.2289671000035	0	569064	252
1113.515625	1.2289671000035	decision	choicePhaseStart	3	160	40	foodImage.110	FOODEEG_Images\0918.jpg	YN	Left	Yes	1.2289671000035	0	570121	253
1114.736328125	0	decision	response	3	160	40	foodImage.110	FOODEEG_Images\0918.jpg	YN	Left	Yes	1.2289671000035	0	570746	234
1115.783203125	1	health	trialStart	3	161	41	foodImage.111	FOODEEG_Images\0919.jpg	NY	Left	No	1.01237300000503	0	571282	251
1116.8203125	2	health	foodImageDisplay	3	161	41	foodImage.111	FOODEEG_Images\0919.jpg	NY	Left	No	1.01237300000503	0	571813	252
1118.884765625	1.01237300000503	health	choicePhaseStart	3	161	41	foodImage.111	FOODEEG_Images\0919.jpg	NY	Left	No	1.01237300000503	0	572870	253
1119.88671875	0	health	response	3	161	41	foodImage.111	FOODEEG_Images\0919.jpg	NY	Left	No	1.01237300000503	0	573383	234
1120.931640625	1	taste	trialStart	3	162	42	foodImage.44	FOODEEG_Images\0459.jpg	NY	Right	Yes	0.761952000000747	0	573918	251
1121.978515625	2	taste	foodImageDisplay	3	162	42	foodImage.44	FOODEEG_Images\0459.jpg	NY	Right	Yes	0.761952000000747	0	574454	252
1124.046875	0.761952000000747	taste	choicePhaseStart	3	162	42	foodImage.44	FOODEEG_Images\0459.jpg	NY	Right	Yes	0.761952000000747	0	575513	253
1124.798828125	0	taste	response	3	162	42	foodImage.44	FOODEEG_Images\0459.jpg	NY	Right	Yes	0.761952000000747	0	575898	235
1125.841796875	1	taste	trialStart	3	163	43	foodImage.67	FOODEEG_Images\0679.jpg	YN	Right	No	0.820915999996942	0	576432	251
1126.900390625	2	taste	foodImageDisplay	3	163	43	foodImage.67	FOODEEG_Images\0679.jpg	YN	Right	No	0.820915999996942	0	576974	252
1128.96484375	0.820915999996942	taste	choicePhaseStart	3	163	43	foodImage.67	FOODEEG_Images\0679.jpg	YN	Right	No	0.820915999996942	0	578031	253
1129.775390625	0	taste	response	3	163	43	foodImage.67	FOODEEG_Images\0679.jpg	YN	Right	No	0.820915999996942	0	578446	235
1130.818359375	1	taste	trialStart	3	164	44	foodImage.69	FOODEEG_Images\0693.jpg	NY	Left	No	1.6677389999968	0	578980	251
1131.861328125	2	taste	foodImageDisplay	3	164	44	foodImage.69	FOODEEG_Images\0693.jpg	NY	Left	No	1.6677389999968	0	579514	252
1133.92578125	1.6677389999968	taste	choicePhaseStart	3	164	44	foodImage.69	FOODEEG_Images\0693.jpg	NY	Left	No	1.6677389999968	0	580571	253
1135.58203125	0	taste	response	3	164	44	foodImage.69	FOODEEG_Images\0693.jpg	NY	Left	No	1.6677389999968	0	581419	234
1136.626953125	1	taste	trialStart	3	165	45	foodImage.32	FOODEEG_Images\0319.jpg	NY	Right	Yes	0.63454470000579	0	581954	251
1137.669921875	2	taste	foodImageDisplay	3	165	45	foodImage.32	FOODEEG_Images\0319.jpg	NY	Right	Yes	0.63454470000579	0	582488	252
1139.734375	0.63454470000579	taste	choicePhaseStart	3	165	45	foodImage.32	FOODEEG_Images\0319.jpg	NY	Right	Yes	0.63454470000579	0	583545	253
1140.359375	0	taste	response	3	165	45	foodImage.32	FOODEEG_Images\0319.jpg	NY	Right	Yes	0.63454470000579	0	583865	235
1141.40234375	1	decision	trialStart	3	166	46	foodImage.8	FOODEEG_Images\0136.jpg	NY	Right	Yes	0.557062700012466	0	584399	251
1142.443359375	2	decision	foodImageDisplay	3	166	46	foodImage.8	FOODEEG_Images\0136.jpg	NY	Right	Yes	0.557062700012466	0	584932	252
1144.5078125	0.557062700012466	decision	choicePhaseStart	3	166	46	foodImage.8	FOODEEG_Images\0136.jpg	NY	Right	Yes	0.557062700012466	0	585989	253
1145.0546875	0	decision	response	3	166	46	foodImage.8	FOODEEG_Images\0136.jpg	NY	Right	Yes	0.557062700012466	0	586269	235
1146.09765625	1	decision	trialStart	3	167	47	foodImage.34	FOODEEG_Images\0339.jpg	NY	Right	Yes	0.648289800010389	0	586803	251
1147.15625	2	decision	foodImageDisplay	3	167	47	foodImage.34	FOODEEG_Images\0339.jpg	NY	Right	Yes	0.648289800010389	0	587345	252
1149.220703125	0.648289800010389	decision	choicePhaseStart	3	167	47	foodImage.34	FOODEEG_Images\0339.jpg	NY	Right	Yes	0.648289800010389	0	588402	253
1149.86328125	0	decision	response	3	167	47	foodImage.34	FOODEEG_Images\0339.jpg	NY	Right	Yes	0.648289800010389	0	588731	235
1150.90625	1	decision	trialStart	3	168	48	foodImage.113	FOODEEG_Images\0921.jpg	NY	Right	Yes	0.534815499995602	0	589265	251
1151.9453125	2	decision	foodImageDisplay	3	168	48	foodImage.113	FOODEEG_Images\0921.jpg	NY	Right	Yes	0.534815499995602	0	589797	252
1154.009765625	0.534815499995602	decision	choicePhaseStart	3	168	48	foodImage.113	FOODEEG_Images\0921.jpg	NY	Right	Yes	0.534815499995602	0	590854	253
1154.533203125	0	decision	response	3	168	48	foodImage.113	FOODEEG_Images\0921.jpg	NY	Right	Yes	0.534815499995602	0	591122	235
1155.576171875	1	decision	trialStart	3	169	49	foodImage.57	FOODEEG_Images\0587.jpg	YN	Left	Yes	0.518961699999636	0	591656	251
1156.640625	2	decision	foodImageDisplay	3	169	49	foodImage.57	FOODEEG_Images\0587.jpg	YN	Left	Yes	0.518961699999636	0	592201	252
1158.705078125	0.518961699999636	decision	choicePhaseStart	3	169	49	foodImage.57	FOODEEG_Images\0587.jpg	YN	Left	Yes	0.518961699999636	0	593258	253
1159.21484375	0	decision	response	3	169	49	foodImage.57	FOODEEG_Images\0587.jpg	YN	Left	Yes	0.518961699999636	0	593519	234
1160.2578125	1	health	trialStart	3	170	50	foodImage.104	FOODEEG_Images\0912.jpg	NY	Right	Yes	1.40774840000086	0	594053	251
1161.30859375	2	health	foodImageDisplay	3	170	50	foodImage.104	FOODEEG_Images\0912.jpg	NY	Right	Yes	1.40774840000086	0	594591	252
1163.373046875	1.40774840000086	health	choicePhaseStart	3	170	50	foodImage.104	FOODEEG_Images\0912.jpg	NY	Right	Yes	1.40774840000086	0	595648	253
1164.7734375	0	health	response	3	170	50	foodImage.104	FOODEEG_Images\0912.jpg	NY	Right	Yes	1.40774840000086	0	596365	235
1165.818359375	1	taste	trialStart	3	171	51	foodImage.24	FOODEEG_Images\0250.jpg	YN	Left	Yes	0.722706700005801	0	596900	251
1166.861328125	2	taste	foodImageDisplay	3	171	51	foodImage.24	FOODEEG_Images\0250.jpg	YN	Left	Yes	0.722706700005801	0	597434	252
1168.923828125	0.722706700005801	taste	choicePhaseStart	3	171	51	foodImage.24	FOODEEG_Images\0250.jpg	YN	Left	Yes	0.722706700005801	0	598490	253
1169.63671875	0	taste	response	3	171	51	foodImage.24	FOODEEG_Images\0250.jpg	YN	Left	Yes	0.722706700005801	0	598855	234
1170.68359375	1	health	trialStart	3	172	52	foodImage.52	FOODEEG_Images\0539.jpg	YN	Left	Yes	0.761437099979958	0	599391	251
1171.7421875	2	health	foodImageDisplay	3	172	52	foodImage.52	FOODEEG_Images\0539.jpg	YN	Left	Yes	0.761437099979958	0	599933	252
1173.8046875	0.761437099979958	health	choicePhaseStart	3	172	52	foodImage.52	FOODEEG_Images\0539.jpg	YN	Left	Yes	0.761437099979958	0	600989	253
1174.556640625	0	health	response	3	172	52	foodImage.52	FOODEEG_Images\0539.jpg	YN	Left	Yes	0.761437099979958	0	601374	234
1175.6015625	1	taste	trialStart	3	173	53	foodImage.55	FOODEEG_Images\0567.jpg	YN	Right	No	1.13933430000907	0	601909	251
1176.66015625	2	taste	foodImageDisplay	3	173	53	foodImage.55	FOODEEG_Images\0567.jpg	YN	Right	No	1.13933430000907	0	602451	252
1178.72265625	1.13933430000907	taste	choicePhaseStart	3	173	53	foodImage.55	FOODEEG_Images\0567.jpg	YN	Right	No	1.13933430000907	0	603507	253
1179.853515625	0	taste	response	3	173	53	foodImage.55	FOODEEG_Images\0567.jpg	YN	Right	No	1.13933430000907	0	604086	235
1180.90234375	1	decision	trialStart	3	174	54	foodImage.84	FOODEEG_Images\0830.jpg	YN	Right	No	0.74478830001317	0	604623	251
1181.95703125	2	decision	foodImageDisplay	3	174	54	foodImage.84	FOODEEG_Images\0830.jpg	YN	Right	No	0.74478830001317	0	605163	252
1184.021484375	0.74478830001317	decision	choicePhaseStart	3	174	54	foodImage.84	FOODEEG_Images\0830.jpg	YN	Right	No	0.74478830001317	0	606220	253
1184.7578125	0	decision	response	3	174	54	foodImage.84	FOODEEG_Images\0830.jpg	YN	Right	No	0.74478830001317	0	606597	235
1185.798828125	1	decision	trialStart	3	175	55	foodImage.94	FOODEEG_Images\0902.jpg	NY	Right	Yes	1.3202869000088	0	607130	251
1186.837890625	2	decision	foodImageDisplay	3	175	55	foodImage.94	FOODEEG_Images\0902.jpg	NY	Right	Yes	1.3202869000088	0	607662	252
1188.90234375	1.3202869000088	decision	choicePhaseStart	3	175	55	foodImage.94	FOODEEG_Images\0902.jpg	NY	Right	Yes	1.3202869000088	0	608719	253
1190.212890625	0	decision	response	3	175	55	foodImage.94	FOODEEG_Images\0902.jpg	NY	Right	Yes	1.3202869000088	0	609390	235
1191.255859375	1	taste	trialStart	3	176	56	foodImage.105	FOODEEG_Images\0913.jpg	NY	Right	Yes	0.567521699995268	0	609924	251
1192.29296875	2	taste	foodImageDisplay	3	176	56	foodImage.105	FOODEEG_Images\0913.jpg	NY	Right	Yes	0.567521699995268	0	610455	252
1194.357421875	0.567521699995268	taste	choicePhaseStart	3	176	56	foodImage.105	FOODEEG_Images\0913.jpg	NY	Right	Yes	0.567521699995268	0	611512	253
1194.916015625	0	taste	response	3	176	56	foodImage.105	FOODEEG_Images\0913.jpg	NY	Right	Yes	0.567521699995268	0	611798	235
1195.9609375	1	decision	trialStart	3	177	57	foodImage.53	FOODEEG_Images\0547.jpg	YN	Left	Yes	0.651981700008037	0	612333	251
1197.017578125	2	decision	foodImageDisplay	3	177	57	foodImage.53	FOODEEG_Images\0547.jpg	YN	Left	Yes	0.651981700008037	0	612874	252
1199.08203125	0.651981700008037	decision	choicePhaseStart	3	177	57	foodImage.53	FOODEEG_Images\0547.jpg	YN	Left	Yes	0.651981700008037	0	613931	253
1199.724609375	0	decision	response	3	177	57	foodImage.53	FOODEEG_Images\0547.jpg	YN	Left	Yes	0.651981700008037	0	614260	234
1200.767578125	1	decision	trialStart	3	178	58	foodImage.109	FOODEEG_Images\0917.jpg	YN	Right	No	0.624190700007603	0	614794	251
1201.806640625	2	decision	foodImageDisplay	3	178	58	foodImage.109	FOODEEG_Images\0917.jpg	YN	Right	No	0.624190700007603	0	615326	252
1203.869140625	0.624190700007603	decision	choicePhaseStart	3	178	58	foodImage.109	FOODEEG_Images\0917.jpg	YN	Right	No	0.624190700007603	0	616382	253
1204.484375	0	decision	response	3	178	58	foodImage.109	FOODEEG_Images\0917.jpg	YN	Right	No	0.624190700007603	0	616697	235
1205.52734375	1	taste	trialStart	3	179	59	foodImage.102	FOODEEG_Images\0910.jpg	YN	Left	Yes	0.670677800022531	0	617231	251
1206.56640625	2	taste	foodImageDisplay	3	179	59	foodImage.102	FOODEEG_Images\0910.jpg	YN	Left	Yes	0.670677800022531	0	617763	252
1208.630859375	0.670677800022531	taste	choicePhaseStart	3	179	59	foodImage.102	FOODEEG_Images\0910.jpg	YN	Left	Yes	0.670677800022531	0	618820	253
1209.291015625	0	taste	response	3	179	59	foodImage.102	FOODEEG_Images\0910.jpg	YN	Left	Yes	0.670677800022531	0	619158	234
1210.3359375	1	decision	trialStart	3	180	60	foodImage.50	FOODEEG_Images\0529.jpg	YN	Left	Yes	0.827217099984409	0	619693	251
1211.39453125	2	decision	foodImageDisplay	3	180	60	foodImage.50	FOODEEG_Images\0529.jpg	YN	Left	Yes	0.827217099984409	0	620235	252
1213.45703125	0.827217099984409	decision	choicePhaseStart	3	180	60	foodImage.50	FOODEEG_Images\0529.jpg	YN	Left	Yes	0.827217099984409	0	621291	253
1214.275390625	0	decision	response	3	180	60	foodImage.50	FOODEEG_Images\0529.jpg	YN	Left	Yes	0.827217099984409	0	621710	234
1216.3203125	29.71875	n/a	blockEnd	n/a	n/a	n/a	n/a	n/a	n/a	n/a	n/a	n/a	n/a	622757	254
1246.0390625	2	n/a	blockStart	4	n/a	n/a	n/a	n/a	n/a	n/a	n/a	n/a	n/a	637973	250
1248.072265625	1	health	trialStart	4	181	1	foodImage.10	FOODEEG_Images\0145.jpg	NY	Left	No	0.986359800008358	0	639014	251
1249.1328125	2	health	foodImageDisplay	4	181	1	foodImage.10	FOODEEG_Images\0145.jpg	NY	Left	No	0.986359800008358	0	639557	252
1251.1953125	0.986359800008358	health	choicePhaseStart	4	181	1	foodImage.10	FOODEEG_Images\0145.jpg	NY	Left	No	0.986359800008358	0	640613	253
1252.177734375	0	health	response	4	181	1	foodImage.10	FOODEEG_Images\0145.jpg	NY	Left	No	0.986359800008358	0	641116	234
1253.220703125	1	taste	trialStart	4	182	2	foodImage.42	FOODEEG_Images\0438.jpg	NY	Right	Yes	0.887908300006529	0	641650	251
1254.3125	2	taste	foodImageDisplay	4	182	2	foodImage.42	FOODEEG_Images\0438.jpg	NY	Right	Yes	0.887908300006529	0	642209	252
1256.37890625	0.887908300006529	taste	choicePhaseStart	4	182	2	foodImage.42	FOODEEG_Images\0438.jpg	NY	Right	Yes	0.887908300006529	0	643267	253
1257.2578125	0	taste	response	4	182	2	foodImage.42	FOODEEG_Images\0438.jpg	NY	Right	Yes	0.887908300006529	0	643717	235
1258.30078125	1	decision	trialStart	4	183	3	foodImage.1	FOODEEG_Images\0004.jpg	YN	Left	Yes	0.653875600022729	0	644251	251
1259.341796875	2	decision	foodImageDisplay	4	183	3	foodImage.1	FOODEEG_Images\0004.jpg	YN	Left	Yes	0.653875600022729	0	644784	252
1261.41015625	0.653875600022729	decision	choicePhaseStart	4	183	3	foodImage.1	FOODEEG_Images\0004.jpg	YN	Left	Yes	0.653875600022729	0	645843	253
1262.05859375	0	decision	response	4	183	3	foodImage.1	FOODEEG_Images\0004.jpg	YN	Left	Yes	0.653875600022729	0	646175	234
1263.1015625	1	health	trialStart	4	184	4	foodImage.18	FOODEEG_Images\0202.jpg	YN	Left	Yes	0.8108307000075	0	646709	251
1264.16015625	2	health	foodImageDisplay	4	184	4	foodImage.18	FOODEEG_Images\0202.jpg	YN	Left	Yes	0.8108307000075	0	647251	252
1266.224609375	0.8108307000075	health	choicePhaseStart	4	184	4	foodImage.18	FOODEEG_Images\0202.jpg	YN	Left	Yes	0.8108307000075	0	648308	253
1267.025390625	0	health	response	4	184	4	foodImage.18	FOODEEG_Images\0202.jpg	YN	Left	Yes	0.8108307000075	0	648718	234
1268.0703125	1	health	trialStart	4	185	5	foodImage.19	FOODEEG_Images\0225.jpg	NY	Left	No	1.20258489999105	0	649253	251
1269.11328125	2	health	foodImageDisplay	4	185	5	foodImage.19	FOODEEG_Images\0225.jpg	NY	Left	No	1.20258489999105	0	649787	252
1271.17578125	1.20258489999105	health	choicePhaseStart	4	185	5	foodImage.19	FOODEEG_Images\0225.jpg	NY	Left	No	1.20258489999105	0	650843	253
1272.369140625	0	health	response	4	185	5	foodImage.19	FOODEEG_Images\0225.jpg	NY	Left	No	1.20258489999105	0	651454	234
1273.412109375	1	decision	trialStart	4	186	6	foodImage.25	FOODEEG_Images\0261.jpg	YN	Left	Yes	0.756245900003705	0	651988	251
1274.462890625	2	decision	foodImageDisplay	4	186	6	foodImage.25	FOODEEG_Images\0261.jpg	YN	Left	Yes	0.756245900003705	0	652526	252
1276.52734375	0.756245900003705	decision	choicePhaseStart	4	186	6	foodImage.25	FOODEEG_Images\0261.jpg	YN	Left	Yes	0.756245900003705	0	653583	253
1277.2734375	0	decision	response	4	186	6	foodImage.25	FOODEEG_Images\0261.jpg	YN	Left	Yes	0.756245900003705	0	653965	234
1278.318359375	1	decision	trialStart	4	187	7	foodImage.4	FOODEEG_Images\0065.jpg	NY	Right	Yes	0.569082899979549	0	654500	251
1279.376953125	2	decision	foodImageDisplay	4	187	7	foodImage.4	FOODEEG_Images\0065.jpg	NY	Right	Yes	0.569082899979549	0	655042	252
1281.44140625	0.569082899979549	decision	choicePhaseStart	4	187	7	foodImage.4	FOODEEG_Images\0065.jpg	NY	Right	Yes	0.569082899979549	0	656099	253
1282.001953125	0	decision	response	4	187	7	foodImage.4	FOODEEG_Images\0065.jpg	NY	Right	Yes	0.569082899979549	0	656386	235
1283.044921875	1	decision	trialStart	4	188	8	foodImage.65	FOODEEG_Images\0658.jpg	YN	Left	Yes	0.60950610000873	0	656920	251
1284.10546875	2	decision	foodImageDisplay	4	188	8	foodImage.65	FOODEEG_Images\0658.jpg	YN	Left	Yes	0.60950610000873	0	657463	252
1286.169921875	0.60950610000873	decision	choicePhaseStart	4	188	8	foodImage.65	FOODEEG_Images\0658.jpg	YN	Left	Yes	0.60950610000873	0	658520	253
1286.76953125	0	decision	response	4	188	8	foodImage.65	FOODEEG_Images\0658.jpg	YN	Left	Yes	0.60950610000873	0	658827	234
1287.8125	1	taste	trialStart	4	189	9	foodImage.20	FOODEEG_Images\0226.jpg	YN	Left	Yes	0.556401799985906	0	659361	251
1288.85546875	2	taste	foodImageDisplay	4	189	9	foodImage.20	FOODEEG_Images\0226.jpg	YN	Left	Yes	0.556401799985906	0	659895	252
1290.91796875	0.556401799985906	taste	choicePhaseStart	4	189	9	foodImage.20	FOODEEG_Images\0226.jpg	YN	Left	Yes	0.556401799985906	0	660951	253
1291.46484375	0	taste	response	4	189	9	foodImage.20	FOODEEG_Images\0226.jpg	YN	Left	Yes	0.556401799985906	0	661231	234
1292.5078125	1	health	trialStart	4	190	10	foodImage.55	FOODEEG_Images\0567.jpg	YN	Left	Yes	0.780204200011212	0	661765	251
1293.564453125	2	health	foodImageDisplay	4	190	10	foodImage.55	FOODEEG_Images\0567.jpg	YN	Left	Yes	0.780204200011212	0	662306	252
1295.62890625	0.780204200011212	health	choicePhaseStart	4	190	10	foodImage.55	FOODEEG_Images\0567.jpg	YN	Left	Yes	0.780204200011212	0	663363	253
1296.400390625	0	health	response	4	190	10	foodImage.55	FOODEEG_Images\0567.jpg	YN	Left	Yes	0.780204200011212	0	663758	234
1297.443359375	1	taste	trialStart	4	191	11	foodImage.91	FOODEEG_Images\0896.jpg	NY	Right	Yes	0.516691900003934	0	664292	251
1298.501953125	2	taste	foodImageDisplay	4	191	11	foodImage.91	FOODEEG_Images\0896.jpg	NY	Right	Yes	0.516691900003934	0	664834	252
1300.564453125	0.516691900003934	taste	choicePhaseStart	4	191	11	foodImage.91	FOODEEG_Images\0896.jpg	NY	Right	Yes	0.516691900003934	0	665890	253
1301.072265625	0	taste	response	4	191	11	foodImage.91	FOODEEG_Images\0896.jpg	NY	Right	Yes	0.516691900003934	0	666150	235
1302.11328125	1	health	trialStart	4	192	12	foodImage.37	FOODEEG_Images\0359.jpg	YN	Left	Yes	0.95894959999714	0	666683	251
1303.154296875	2	health	foodImageDisplay	4	192	12	foodImage.37	FOODEEG_Images\0359.jpg	YN	Left	Yes	0.95894959999714	0	667216	252
1305.21875	0.95894959999714	health	choicePhaseStart	4	192	12	foodImage.37	FOODEEG_Images\0359.jpg	YN	Left	Yes	0.95894959999714	0	668273	253
1306.16796875	0	health	response	4	192	12	foodImage.37	FOODEEG_Images\0359.jpg	YN	Left	Yes	0.95894959999714	0	668759	234
1307.2109375	1	taste	trialStart	4	193	13	foodImage.90	FOODEEG_Images\0890.jpg	NY	Right	Yes	0.9407081999816	0	669293	251
1308.26953125	2	taste	foodImageDisplay	4	193	13	foodImage.90	FOODEEG_Images\0890.jpg	NY	Right	Yes	0.9407081999816	0	669835	252
1310.33203125	0.9407081999816	taste	choicePhaseStart	4	193	13	foodImage.90	FOODEEG_Images\0890.jpg	NY	Right	Yes	0.9407081999816	0	670891	253
1311.263671875	0	taste	response	4	193	13	foodImage.90	FOODEEG_Images\0890.jpg	NY	Right	Yes	0.9407081999816	0	671368	235
1312.30859375	1	health	trialStart	4	194	14	foodImage.4	FOODEEG_Images\0065.jpg	YN	Left	Yes	0.56261049999739	0	671903	251
1313.3671875	2	health	foodImageDisplay	4	194	14	foodImage.4	FOODEEG_Images\0065.jpg	YN	Left	Yes	0.56261049999739	0	672445	252
