onset	duration	trial_type	event_type	block	trial_total	trial_in_block	food_image_code	food_image_path	button_position	resp_position	resp_choice	choice_rt	resp_too_slow	sample	trigger
338.69140625	2	n/a	blockStart	1	n/a	n/a	n/a	n/a	n/a	n/a	n/a	n/a	n/a	173411	250
340.73046875	1	taste	trialStart	1	1	1	foodImage.41	FOODEEG_Images\0409.jpg	NY	Right	Yes	0.970140200050082	0	174455	251
341.783203125	2	taste	foodImageDisplay	1	1	1	foodImage.41	FOODEEG_Images\0409.jpg	NY	Right	Yes	0.970140200050082	0	174994	252
343.849609375	0.970140200050082	taste	choicePhaseStart	1	1	1	foodImage.41	FOODEEG_Images\0409.jpg	NY	Right	Yes	0.970140200050082	0	176052	253
344.8125	0	taste	response	1	1	1	foodImage.41	FOODEEG_Images\0409.jpg	NY	Right	Yes	0.970140200050082	0	176545	235
345.90625	1	health	trialStart	1	2	2	foodImage.104	FOODEEG_Images\0912.jpg	YN	Right	No	0.58573210000759	0	177105	251
346.94921875	2	health	foodImageDisplay	1	2	2	foodImage.104	FOODEEG_Images\0912.jpg	YN	Right	No	0.58573210000759	0	177639	252
349.017578125	0.58573210000759	health	choicePhaseStart	1	2	2	foodImage.104	FOODEEG_Images\0912.jpg	YN	Right	No	0.58573210000759	0	178698	253
349.595703125	0	health	response	1	2	2	foodImage.104	FOODEEG_Images\0912.jpg	YN	Right	No	0.58573210000759	0	178994	235
350.650390625	1	health	trialStart	1	3	3	foodImage.107	FOODEEG_Images\0915.jpg	YN	Right	No	0.891203799983487	0	179534	251
351.689453125	2	health	foodImageDisplay	1	3	3	foodImage.107	FOODEEG_Images\0915.jpg	YN	Right	No	0.891203799983487	0	180066	252
353.751953125	0.891203799983487	health	choicePhaseStart	1	3	3	foodImage.107	FOODEEG_Images\0915.jpg	YN	Right	No	0.891203799983487	0	181122	253
354.634765625	0	health	response	1	3	3	foodImage.107	FOODEEG_Images\0915.jpg	YN	Right	No	0.891203799983487	0	181574	235
355.6796875	1	decision	trialStart	1	4	4	foodImage.7	FOODEEG_Images\0116.jpg	YN	Left	Yes	0.764207200030796	0	182109	251
356.71875	2	decision	foodImageDisplay	1	4	4	foodImage.7	FOODEEG_Images\0116.jpg	YN	Left	Yes	0.764207200030796	0	182641	252
358.783203125	0.764207200030796	decision	choicePhaseStart	1	4	4	foodImage.7	FOODEEG_Images\0116.jpg	YN	Left	Yes	0.764207200030796	0	183698	253
359.5390625	0	decision	response	1	4	4	foodImage.7	FOODEEG_Images\0116.jpg	YN	Left	Yes	0.764207200030796	0	184085	234
360.583984375	1	taste	trialStart	1	5	5	foodImage.95	FOODEEG_Images\0903.jpg	YN	Right	No	0.84366809995845	0	184620	251
361.630859375	2	taste	foodImageDisplay	1	5	5	foodImage.95	FOODEEG_Images\0903.jpg	YN	Right	No	0.84366809995845	0	185156	252
363.6953125	0.84366809995845	taste	choicePhaseStart	1	5	5	foodImage.95	FOODEEG_Images\0903.jpg	YN	Right	No	0.84366809995845	0	186213	253
364.53125	0	taste	response	1	5	5	foodImage.95	FOODEEG_Images\0903.jpg	YN	Right	No	0.84366809995845	0	186641	235
365.580078125	1	taste	trialStart	1	6	6	foodImage.44	FOODEEG_Images\0459.jpg	YN	Left	Yes	1.08077290002257	0	187178	251
366.6484375	2	taste	foodImageDisplay	1	6	6	foodImage.44	FOODEEG_Images\0459.jpg	YN	Left	Yes	1.08077290002257	0	187725	252
368.712890625	1.08077290002257	taste	choicePhaseStart	1	6	6	foodImage.44	FOODEEG_Images\0459.jpg	YN	Left	Yes	1.08077290002257	0	188782	253
369.787109375	0	taste	response	1	6	6	foodImage.44	FOODEEG_Images\0459.jpg	YN	Left	Yes	1.08077290002257	0	189332	234
370.826171875	1	decision	trialStart	1	7	7	foodImage.58	FOODEEG_Images\0605.jpg	YN	Left	Yes	0.609165999980178	0	189864	251
371.880859375	2	decision	foodImageDisplay	1	7	7	foodImage.58	FOODEEG_Images\0605.jpg	YN	Left	Yes	0.609165999980178	0	190404	252
373.9453125	0.609165999980178	decision	choicePhaseStart	1	7	7	foodImage.58	FOODEEG_Images\0605.jpg	YN	Left	Yes	0.609165999980178	0	191461	253
374.546875	0	decision	response	1	7	7	foodImage.58	FOODEEG_Images\0605.jpg	YN	Left	Yes	0.609165999980178	0	191769	234
375.58984375	1	decision	trialStart	1	8	8	foodImage.8	FOODEEG_Images\0136.jpg	YN	Right	No	0.652005599986296	0	192303	251
376.630859375	2	decision	foodImageDisplay	1	8	8	foodImage.8	FOODEEG_Images\0136.jpg	YN	Right	No	0.652005599986296	0	192836	252
378.6953125	0.652005599986296	decision	choicePhaseStart	1	8	8	foodImage.8	FOODEEG_Images\0136.jpg	YN	Right	No	0.652005599986296	0	193893	253
379.33984375	0	decision	response	1	8	8	foodImage.8	FOODEEG_Images\0136.jpg	YN	Right	No	0.652005599986296	0	194223	235
380.3828125	1	decision	trialStart	1	9	9	foodImage.25	FOODEEG_Images\0261.jpg	NY	Right	Yes	1.30014289997052	0	194757	251
381.423828125	2	decision	foodImageDisplay	1	9	9	foodImage.25	FOODEEG_Images\0261.jpg	NY	Right	Yes	1.30014289997052	0	195290	252
383.486328125	1.30014289997052	decision	choicePhaseStart	1	9	9	foodImage.25	FOODEEG_Images\0261.jpg	NY	Right	Yes	1.30014289997052	0	196346	253
384.77734375	0	decision	response	1	9	9	foodImage.25	FOODEEG_Images\0261.jpg	NY	Right	Yes	1.30014289997052	0	197007	235
385.822265625	1	decision	trialStart	1	10	10	foodImage.102	FOODEEG_Images\0910.jpg	NY	Left	No	0.613314500020351	0	197542	251
386.861328125	2	decision	foodImageDisplay	1	10	10	foodImage.102	FOODEEG_Images\0910.jpg	NY	Left	No	0.613314500020351	0	198074	252
388.923828125	0.613314500020351	decision	choicePhaseStart	1	10	10	foodImage.102	FOODEEG_Images\0910.jpg	NY	Left	No	0.613314500020351	0	199130	253
389.529296875	0	decision	response	1	10	10	foodImage.102	FOODEEG_Images\0910.jpg	NY	Left	No	0.613314500020351	0	199440	234
390.572265625	1	health	trialStart	1	11	11	foodImage.72	FOODEEG_Images\0714.jpg	YN	Right	No	0.777185099956114	0	199974	251
391.625	2	health	foodImageDisplay	1	11	11	foodImage.72	FOODEEG_Images\0714.jpg	YN	Right	No	0.777185099956114	0	200513	252
393.6875	0.777185099956114	health	choicePhaseStart	1	11	11	foodImage.72	FOODEEG_Images\0714.jpg	YN	Right	No	0.777185099956114	0	201569	253
394.45703125	0	health	response	1	11	11	foodImage.72	FOODEEG_Images\0714.jpg	YN	Right	No	0.777185099956114	0	201963	235
395.498046875	1	taste	trialStart	1	12	12	foodImage.88	FOODEEG_Images\0878.jpg	NY	Right	Yes	0.627347700006794	0	202496	251
396.55078125	2	taste	foodImageDisplay	1	12	12	foodImage.88	FOODEEG_Images\0878.jpg	NY	Right	Yes	0.627347700006794	0	203035	252
398.61328125	0.627347700006794	taste	choicePhaseStart	1	12	12	foodImage.88	FOODEEG_Images\0878.jpg	NY	Right	Yes	0.627347700006794	0	204091	253
399.232421875	0	taste	response	1	12	12	foodImage.88	FOODEEG_Images\0878.jpg	NY	Right	Yes	0.627347700006794	0	204408	235
400.275390625	1	health	trialStart	1	13	13	foodImage.40	FOODEEG_Images\0373.jpg	YN	Left	Yes	0.758392299991101	0	204942	251
401.31640625	2	health	foodImageDisplay	1	13	13	foodImage.40	FOODEEG_Images\0373.jpg	YN	Left	Yes	0.758392299991101	0	205475	252
403.37890625	0.758392299991101	health	choicePhaseStart	1	13	13	foodImage.40	FOODEEG_Images\0373.jpg	YN	Left	Yes	0.758392299991101	0	206531	253
404.130859375	0	health	response	1	13	13	foodImage.40	FOODEEG_Images\0373.jpg	YN	Left	Yes	0.758392299991101	0	206916	234
405.171875	1	health	trialStart	1	14	14	foodImage.89	FOODEEG_Images\0881.jpg	NY	Right	Yes	0.658052199985832	0	207449	251
406.23046875	2	health	foodImageDisplay	1	14	14	foodImage.89	FOODEEG_Images\0881.jpg	NY	Right	Yes	0.658052199985832	0	207991	252
408.294921875	0.658052199985832	health	choicePhaseStart	1	14	14	foodImage.89	FOODEEG_Images\0881.jpg	NY	Right	Yes	0.658052199985832	0	209048	253
408.9453125	0	health	response	1	14	14	foodImage.89	FOODEEG_Images\0881.jpg	NY	Right	Yes	0.658052199985832	0	209381	235
409.986328125	1	taste	trialStart	1	15	15	foodImage.119	FOODEEG_Images\0927.jpg	NY	Left	No	0.738917300011963	0	209914	251
411.0390625	2	taste	foodImageDisplay	1	15	15	foodImage.119	FOODEEG_Images\0927.jpg	NY	Left	No	0.738917300011963	0	210453	252
413.103515625	0.738917300011963	taste	choicePhaseStart	1	15	15	foodImage.119	FOODEEG_Images\0927.jpg	NY	Left	No	0.738917300011963	0	211510	253
413.83203125	0	taste	response	1	15	15	foodImage.119	FOODEEG_Images\0927.jpg	NY	Left	No	0.738917300011963	0	211883	234
414.87109375	1	decision	trialStart	1	16	16	foodImage.43	FOODEEG_Images\0445.jpg	YN	Right	No	1.12167489994317	0	212415	251
415.927734375	2	decision	foodImageDisplay	1	16	16	foodImage.43	FOODEEG_Images\0445.jpg	YN	Right	No	1.12167489994317	0	212956	252
417.990234375	1.12167489994317	decision	choicePhaseStart	1	16	16	foodImage.43	FOODEEG_Images\0445.jpg	YN	Right	No	1.12167489994317	0	214012	253
419.103515625	0	decision	response	1	16	16	foodImage.43	FOODEEG_Images\0445.jpg	YN	Right	No	1.12167489994317	0	214582	235
420.146484375	1	health	trialStart	1	17	17	foodImage.75	FOODEEG_Images\0763.jpg	YN	Left	Yes	0.588036200031638	0	215116	251
421.19140625	2	health	foodImageDisplay	1	17	17	foodImage.75	FOODEEG_Images\0763.jpg	YN	Left	Yes	0.588036200031638	0	215651	252
423.25390625	0.588036200031638	health	choicePhaseStart	1	17	17	foodImage.75	FOODEEG_Images\0763.jpg	YN	Left	Yes	0.588036200031638	0	216707	253
423.83203125	0	health	response	1	17	17	foodImage.75	FOODEEG_Images\0763.jpg	YN	Left	Yes	0.588036200031638	0	217003	234
424.875	1	decision	trialStart	1	18	18	foodImage.26	FOODEEG_Images\0262.jpg	NY	Right	Yes	0.922723499999847	0	217537	251
425.919921875	2	decision	foodImageDisplay	1	18	18	foodImage.26	FOODEEG_Images\0262.jpg	NY	Right	Yes	0.922723499999847	0	218072	252
427.982421875	0.922723499999847	decision	choicePhaseStart	1	18	18	foodImage.26	FOODEEG_Images\0262.jpg	NY	Right	Yes	0.922723499999847	0	219128	253
428.896484375	0	decision	response	1	18	18	foodImage.26	FOODEEG_Images\0262.jpg	NY	Right	Yes	0.922723499999847	0	219596	235
429.94140625	1	health	trialStart	1	19	19	foodImage.67	FOODEEG_Images\0679.jpg	NY	Left	No	0.986618100025225	0	220131	251
431	2	health	foodImageDisplay	1	19	19	foodImage.67	FOODEEG_Images\0679.jpg	NY	Left	No	0.986618100025225	0	220673	252
433.0625	0.986618100025225	health	choicePhaseStart	1	19	19	foodImage.67	FOODEEG_Images\0679.jpg	NY	Left	No	0.986618100025225	0	221729	253
434.0390625	0	health	response	1	19	19	foodImage.67	FOODEEG_Images\0679.jpg	NY	Left	No	0.986618100025225	0	222229	234
435.08203125	1	taste	trialStart	1	20	20	foodImage.96	FOODEEG_Images\0904.jpg	YN	Right	No	0.910208199988119	0	222763	251
436.123046875	2	taste	foodImageDisplay	1	20	20	foodImage.96	FOODEEG_Images\0904.jpg	YN	Right	No	0.910208199988119	0	223296	252
438.185546875	0.910208199988119	taste	choicePhaseStart	1	20	20	foodImage.96	FOODEEG_Images\0904.jpg	YN	Right	No	0.910208199988119	0	224352	253
439.087890625	0	taste	response	1	20	20	foodImage.96	FOODEEG_Images\0904.jpg	YN	Right	No	0.910208199988119	0	224814	235
440.1328125	1	health	trialStart	1	21	21	foodImage.11	FOODEEG_Images\0180.jpg	YN	Left	Yes	0.517364300030749	0	225349	251
441.173828125	2	health	foodImageDisplay	1	21	21	foodImage.11	FOODEEG_Images\0180.jpg	YN	Left	Yes	0.517364300030749	0	225882	252
443.236328125	0.517364300030749	health	choicePhaseStart	1	21	21	foodImage.11	FOODEEG_Images\0180.jpg	YN	Left	Yes	0.517364300030749	0	226938	253
443.744140625	0	health	response	1	21	21	foodImage.11	FOODEEG_Images\0180.jpg	YN	Left	Yes	0.517364300030749	0	227198	234
444.78515625	1	decision	trialStart	1	22	22	foodImage.64	FOODEEG_Images\0647.jpg	YN	Left	Yes	0.806984100025147	0	227731	251
445.841796875	2	decision	foodImageDisplay	1	22	22	foodImage.64	FOODEEG_Images\0647.jpg	YN	Left	Yes	0.806984100025147	0	228272	252
447.904296875	0.806984100025147	decision	choicePhaseStart	1	22	22	foodImage.64	FOODEEG_Images\0647.jpg	YN	Left	Yes	0.806984100025147	0	229328	253
448.703125	0	decision	response	1	22	22	foodImage.64	FOODEEG_Images\0647.jpg	YN	Left	Yes	0.806984100025147	0	229737	234
449.7421875	1	decision	trialStart	1	23	23	foodImage.77	FOODEEG_Images\0771.jpg	YN	Left	Yes	0.607172099989839	0	230269	251
450.78515625	2	decision	foodImageDisplay	1	23	23	foodImage.77	FOODEEG_Images\0771.jpg	YN	Left	Yes	0.607172099989839	0	230803	252
452.84765625	0.607172099989839	decision	choicePhaseStart	1	23	23	foodImage.77	FOODEEG_Images\0771.jpg	YN	Left	Yes	0.607172099989839	0	231859	253
453.447265625	0	decision	response	1	23	23	foodImage.77	FOODEEG_Images\0771.jpg	YN	Left	Yes	0.607172099989839	0	232166	234
454.486328125	1	health	trialStart	1	24	24	foodImage.28	FOODEEG_Images\0273.jpg	YN	Left	Yes	0.723372999986168	0	232698	251
455.52734375	2	health	foodImageDisplay	1	24	24	foodImage.28	FOODEEG_Images\0273.jpg	YN	Left	Yes	0.723372999986168	0	233231	252
457.58984375	0.723372999986168	health	choicePhaseStart	1	24	24	foodImage.28	FOODEEG_Images\0273.jpg	YN	Left	Yes	0.723372999986168	0	234287	253
458.302734375	0	health	response	1	24	24	foodImage.28	FOODEEG_Images\0273.jpg	YN	Left	Yes	0.723372999986168	0	234652	234
459.34375	1	taste	trialStart	1	25	25	foodImage.47	FOODEEG_Images\0488.jpg	YN	Left	Yes	0.966016700025648	0	235185	251
460.38671875	2	taste	foodImageDisplay	1	25	25	foodImage.47	FOODEEG_Images\0488.jpg	YN	Left	Yes	0.966016700025648	0	235719	252
462.44921875	0.966016700025648	taste	choicePhaseStart	1	25	25	foodImage.47	FOODEEG_Images\0488.jpg	YN	Left	Yes	0.966016700025648	0	236775	253
463.40625	0	taste	response	1	25	25	foodImage.47	FOODEEG_Images\0488.jpg	YN	Left	Yes	0.966016700025648	0	237265	234
464.44921875	1	taste	trialStart	1	26	26	foodImage.42	FOODEEG_Images\0438.jpg	YN	Right	No	1.74389780004276	0	237799	251
465.537109375	2	taste	foodImageDisplay	1	26	26	foodImage.42	FOODEEG_Images\0438.jpg	YN	Right	No	1.74389780004276	0	238356	252
467.599609375	1.74389780004276	taste	choicePhaseStart	1	26	26	foodImage.42	FOODEEG_Images\0438.jpg	YN	Right	No	1.74389780004276	0	239412	253
469.333984375	0	taste	response	1	26	26	foodImage.42	FOODEEG_Images\0438.jpg	YN	Right	No	1.74389780004276	0	240300	235
470.376953125	1	taste	trialStart	1	27	27	foodImage.49	FOODEEG_Images\0515.jpg	YN	Left	Yes	0.452880600001663	0	240834	251
471.419921875	2	taste	foodImageDisplay	1	27	27	foodImage.49	FOODEEG_Images\0515.jpg	YN	Left	Yes	0.452880600001663	0	241368	252
473.482421875	0.452880600001663	taste	choicePhaseStart	1	27	27	foodImage.49	FOODEEG_Images\0515.jpg	YN	Left	Yes	0.452880600001663	0	242424	253
473.92578125	0	taste	response	1	27	27	foodImage.49	FOODEEG_Images\0515.jpg	YN	Left	Yes	0.452880600001663	0	242651	234
474.96875	1	health	trialStart	1	28	28	foodImage.5	FOODEEG_Images\0107.jpg	YN	Left	Yes	0.455773299967404	0	243185	251
476.0234375	2	health	foodImageDisplay	1	28	28	foodImage.5	FOODEEG_Images\0107.jpg	YN	Left	Yes	0.455773299967404	0	243725	252
478.0859375	0.455773299967404	health	choicePhaseStart	1	28	28	foodImage.5	FOODEEG_Images\0107.jpg	YN	Left	Yes	0.455773299967404	0	244781	253
478.53515625	0	health	response	1	28	28	foodImage.5	FOODEEG_Images\0107.jpg	YN	Left	Yes	0.455773299967404	0	245011	234
479.57421875	1	health	trialStart	1	29	29	foodImage.60	FOODEEG_Images\0614.jpg	NY	Right	Yes	0.554485999979079	0	245543	251
480.62890625	2	health	foodImageDisplay	1	29	29	foodImage.60	FOODEEG_Images\0614.jpg	NY	Right	Yes	0.554485999979079	0	246083	252
482.69140625	0.554485999979079	health	choicePhaseStart	1	29	29	foodImage.60	FOODEEG_Images\0614.jpg	NY	Right	Yes	0.554485999979079	0	247139	253
483.23828125	0	health	response	1	29	29	foodImage.60	FOODEEG_Images\0614.jpg	NY	Right	Yes	0.554485999979079	0	247419	235
484.28125	1	health	trialStart	1	30	30	foodImage.99	FOODEEG_Images\0907.jpg	YN	Right	No	1.03249820001656	0	247953	251
485.3203125	2	health	foodImageDisplay	1	30	30	foodImage.99	FOODEEG_Images\0907.jpg	YN	Right	No	1.03249820001656	0	248485	252
487.3828125	1.03249820001656	health	choicePhaseStart	1	30	30	foodImage.99	FOODEEG_Images\0907.jpg	YN	Right	No	1.03249820001656	0	249541	253
488.40625	0	health	response	1	30	30	foodImage.99	FOODEEG_Images\0907.jpg	YN	Right	No	1.03249820001656	0	250065	235
489.447265625	1	taste	trialStart	1	31	31	foodImage.22	FOODEEG_Images\0236.jpg	NY	Right	Yes	0.655482199974358	0	250598	251
490.490234375	2	taste	foodImageDisplay	1	31	31	foodImage.22	FOODEEG_Images\0236.jpg	NY	Right	Yes	0.655482199974358	0	251132	252
492.552734375	0.655482199974358	taste	choicePhaseStart	1	31	31	foodImage.22	FOODEEG_Images\0236.jpg	NY	Right	Yes	0.655482199974358	0	252188	253
493.197265625	0	taste	response	1	31	31	foodImage.22	FOODEEG_Images\0236.jpg	NY	Right	Yes	0.655482199974358	0	252518	235
494.23828125	1	taste	trialStart	1	32	32	foodImage.28	FOODEEG_Images\0273.jpg	NY	Left	No	1.41639500000747	0	253051	251
495.279296875	2	taste	foodImageDisplay	1	32	32	foodImage.28	FOODEEG_Images\0273.jpg	NY	Left	No	1.41639500000747	0	253584	252
497.341796875	1.41639500000747	taste	choicePhaseStart	1	32	32	foodImage.28	FOODEEG_Images\0273.jpg	NY	Left	No	1.41639500000747	0	254640	253
498.75	0	taste	response	1	32	32	foodImage.28	FOODEEG_Images\0273.jpg	NY	Left	No	1.41639500000747	0	255361	234
499.791015625	1	health	trialStart	1	33	33	foodImage.96	FOODEEG_Images\0904.jpg	YN	Right	No	0.80832199996803	0	255894	251
500.830078125	2	health	foodImageDisplay	1	33	33	foodImage.96	FOODEEG_Images\0904.jpg	YN	Right	No	0.80832199996803	0	256426	252
502.892578125	0.80832199996803	health	choicePhaseStart	1	33	33	foodImage.96	FOODEEG_Images\0904.jpg	YN	Right	No	0.80832199996803	0	257482	253
503.693359375	0	health	response	1	33	33	foodImage.96	FOODEEG_Images\0904.jpg	YN	Right	No	0.80832199996803	0	257892	235
504.734375	1	taste	trialStart	1	34	34	foodImage.34	FOODEEG_Images\0339.jpg	YN	Left	Yes	1.12695599999279	0	258425	251
505.791015625	2	taste	foodImageDisplay	1	34	34	foodImage.34	FOODEEG_Images\0339.jpg	YN	Left	Yes	1.12695599999279	0	258966	252
507.853515625	1.12695599999279	taste	choicePhaseStart	1	34	34	foodImage.34	FOODEEG_Images\0339.jpg	YN	Left	Yes	1.12695599999279	0	260022	253
508.97265625	0	taste	response	1	34	34	foodImage.34	FOODEEG_Images\0339.jpg	YN	Left	Yes	1.12695599999279	0	260595	234
510.015625	1	taste	trialStart	1	35	35	foodImage.103	FOODEEG_Images\0911.jpg	YN	Right	No	0.570405200007372	0	261129	251
511.052734375	2	taste	foodImageDisplay	1	35	35	foodImage.103	FOODEEG_Images\0911.jpg	YN	Right	No	0.570405200007372	0	261660	252
513.115234375	0.570405200007372	taste	choicePhaseStart	1	35	35	foodImage.103	FOODEEG_Images\0911.jpg	YN	Right	No	0.570405200007372	0	262716	253
513.677734375	0	taste	response	1	35	35	foodImage.103	FOODEEG_Images\0911.jpg	YN	Right	No	0.570405200007372	0	263004	235
514.720703125	1	decision	trialStart	1	36	36	foodImage.44	FOODEEG_Images\0459.jpg	YN	Left	Yes	0.888813199999277	0	263538	251
515.765625	2	decision	foodImageDisplay	1	36	36	foodImage.44	FOODEEG_Images\0459.jpg	YN	Left	Yes	0.888813199999277	0	264073	252
517.828125	0.888813199999277	decision	choicePhaseStart	1	36	36	foodImage.44	FOODEEG_Images\0459.jpg	YN	Left	Yes	0.888813199999277	0	265129	253
518.708984375	0	decision	response	1	36	36	foodImage.44	FOODEEG_Images\0459.jpg	YN	Left	Yes	0.888813199999277	0	265580	234
519.751953125	1	taste	trialStart	1	37	37	foodImage.8	FOODEEG_Images\0136.jpg	NY	Right	Yes	1.3986987999524	0	266114	251
520.79296875	2	taste	foodImageDisplay	1	37	37	foodImage.8	FOODEEG_Images\0136.jpg	NY	Right	Yes	1.3986987999524	0	266647	252
522.85546875	1.3986987999524	taste	choicePhaseStart	1	37	37	foodImage.8	FOODEEG_Images\0136.jpg	NY	Right	Yes	1.3986987999524	0	267703	253
524.244140625	0	taste	response	1	37	37	foodImage.8	FOODEEG_Images\0136.jpg	NY	Right	Yes	1.3986987999524	0	268414	235
525.287109375	1	taste	trialStart	1	38	38	foodImage.56	FOODEEG_Images\0586.jpg	YN	Right	No	1.22353710001335	0	268948	251
526.3515625	2	taste	foodImageDisplay	1	38	38	foodImage.56	FOODEEG_Images\0586.jpg	YN	Right	No	1.22353710001335	0	269493	252
528.4140625	1.22353710001335	taste	choicePhaseStart	1	38	38	foodImage.56	FOODEEG_Images\0586.jpg	YN	Right	No	1.22353710001335	0	270549	253
529.62890625	0	taste	response	1	38	38	foodImage.56	FOODEEG_Images\0586.jpg	YN	Right	No	1.22353710001335	0	271171	235
530.669921875	1	taste	trialStart	1	39	39	foodImage.64	FOODEEG_Images\0647.jpg	YN	Left	Yes	0.801110600004904	0	271704	251
531.7265625	2	taste	foodImageDisplay	1	39	39	foodImage.64	FOODEEG_Images\0647.jpg	YN	Left	Yes	0.801110600004904	0	272245	252
533.7890625	0.801110600004904	taste	choicePhaseStart	1	39	39	foodImage.64	FOODEEG_Images\0647.jpg	YN	Left	Yes	0.801110600004904	0	273301	253
534.580078125	0	taste	response	1	39	39	foodImage.64	FOODEEG_Images\0647.jpg	YN	Left	Yes	0.801110600004904	0	273706	234
535.62109375	1	health	trialStart	1	40	40	foodImage.86	FOODEEG_Images\0844.jpg	YN	Left	Yes	0.51347090001218	0	274239	251
536.677734375	2	health	foodImageDisplay	1	40	40	foodImage.86	FOODEEG_Images\0844.jpg	YN	Left	Yes	0.51347090001218	0	274780	252
538.740234375	0.51347090001218	health	choicePhaseStart	1	40	40	foodImage.86	FOODEEG_Images\0844.jpg	YN	Left	Yes	0.51347090001218	0	275836	253
539.244140625	0	health	response	1	40	40	foodImage.86	FOODEEG_Images\0844.jpg	YN	Left	Yes	0.51347090001218	0	276094	234
540.287109375	1	health	trialStart	1	41	41	foodImage.88	FOODEEG_Images\0878.jpg	NY	Left	No	0.903653600020334	0	276628	251
541.3671875	2	health	foodImageDisplay	1	41	41	foodImage.88	FOODEEG_Images\0878.jpg	NY	Left	No	0.903653600020334	0	277181	252
543.4296875	0.903653600020334	health	choicePhaseStart	1	41	41	foodImage.88	FOODEEG_Images\0878.jpg	NY	Left	No	0.903653600020334	0	278237	253
544.32421875	0	health	response	1	41	41	foodImage.88	FOODEEG_Images\0878.jpg	NY	Left	No	0.903653600020334	0	278695	234
545.3671875	1	taste	trialStart	1	42	42	foodImage.81	FOODEEG_Images\0797.jpg	NY	Left	No	0.902649900002871	0	279229	251
546.423828125	2	taste	foodImageDisplay	1	42	42	foodImage.81	FOODEEG_Images\0797.jpg	NY	Left	No	0.902649900002871	0	279770	252
548.486328125	0.902649900002871	taste	choicePhaseStart	1	42	42	foodImage.81	FOODEEG_Images\0797.jpg	NY	Left	No	0.902649900002871	0	280826	253
549.37890625	0	taste	response	1	42	42	foodImage.81	FOODEEG_Images\0797.jpg	NY	Left	No	0.902649900002871	0	281283	234
550.421875	1	taste	trialStart	1	43	43	foodImage.51	FOODEEG_Images\0536.jpg	YN	Left	Yes	0.626613800006453	0	281817	251
551.466796875	2	taste	foodImageDisplay	1	43	43	foodImage.51	FOODEEG_Images\0536.jpg	YN	Left	Yes	0.626613800006453	0	282352	252
553.529296875	0.626613800006453	taste	choicePhaseStart	1	43	43	foodImage.51	FOODEEG_Images\0536.jpg	YN	Left	Yes	0.626613800006453	0	283408	253
554.146484375	0	taste	response	1	43	43	foodImage.51	FOODEEG_Images\0536.jpg	YN	Left	Yes	0.626613800006453	0	283724	234
555.1875	1	taste	trialStart	1	44	44	foodImage.12	FOODEEG_Images\0181.jpg	YN	Right	No	0.800319000030868	0	284257	251
556.228515625	2	taste	foodImageDisplay	1	44	44	foodImage.12	FOODEEG_Images\0181.jpg	YN	Right	No	0.800319000030868	0	284790	252
558.291015625	0.800319000030868	taste	choicePhaseStart	1	44	44	foodImage.12	FOODEEG_Images\0181.jpg	YN	Right	No	0.800319000030868	0	285846	253
559.08203125	0	taste	response	1	44	44	foodImage.12	FOODEEG_Images\0181.jpg	YN	Right	No	0.800319000030868	0	286251	235
560.123046875	1	taste	trialStart	1	45	45	foodImage.86	FOODEEG_Images\0844.jpg	NY	Right	Yes	0.554218900040723	0	286784	251
561.1796875	2	taste	foodImageDisplay	1	45	45	foodImage.86	FOODEEG_Images\0844.jpg	NY	Right	Yes	0.554218900040723	0	287325	252
563.2421875	0.554218900040723	taste	choicePhaseStart	1	45	45	foodImage.86	FOODEEG_Images\0844.jpg	NY	Right	Yes	0.554218900040723	0	288381	253
563.787109375	0	taste	response	1	45	45	foodImage.86	FOODEEG_Images\0844.jpg	NY	Right	Yes	0.554218900040723	0	288660	235
564.828125	1	decision	trialStart	1	46	46	foodImage.57	FOODEEG_Images\0587.jpg	YN	Left	Yes	0.909036300028674	0	289193	251
565.87109375	2	decision	foodImageDisplay	1	46	46	foodImage.57	FOODEEG_Images\0587.jpg	YN	Left	Yes	0.909036300028674	0	289727	252
567.93359375	0.909036300028674	decision	choicePhaseStart	1	46	46	foodImage.57	FOODEEG_Images\0587.jpg	YN	Left	Yes	0.909036300028674	0	290783	253
568.833984375	0	decision	response	1	46	46	foodImage.57	FOODEEG_Images\0587.jpg	YN	Left	Yes	0.909036300028674	0	291244	234
569.87890625	1	taste	trialStart	1	47	47	foodImage.77	FOODEEG_Images\0771.jpg	YN	Left	Yes	1.19992949999869	0	291779	251
570.923828125	2	taste	foodImageDisplay	1	47	47	foodImage.77	FOODEEG_Images\0771.jpg	YN	Left	Yes	1.19992949999869	0	292314	252
572.98828125	1.19992949999869	taste	choicePhaseStart	1	47	47	foodImage.77	FOODEEG_Images\0771.jpg	YN	Left	Yes	1.19992949999869	0	293371	253
574.177734375	0	taste	response	1	47	47	foodImage.77	FOODEEG_Images\0771.jpg	YN	Left	Yes	1.19992949999869	0	293980	234
575.220703125	1	taste	trialStart	1	48	48	foodImage.73	FOODEEG_Images\0717.jpg	YN	Left	Yes	0.481539700005669	0	294514	251
576.275390625	2	taste	foodImageDisplay	1	48	48	foodImage.73	FOODEEG_Images\0717.jpg	YN	Left	Yes	0.481539700005669	0	295054	252
578.337890625	0.481539700005669	taste	choicePhaseStart	1	48	48	foodImage.73	FOODEEG_Images\0717.jpg	YN	Left	Yes	0.481539700005669	0	296110	253
578.810546875	0	taste	response	1	48	48	foodImage.73	FOODEEG_Images\0717.jpg	YN	Left	Yes	0.481539700005669	0	296352	234
579.853515625	1	health	trialStart	1	49	49	foodImage.115	FOODEEG_Images\0923.jpg	YN	Right	No	0.682353399985004	0	296886	251
580.892578125	2	health	foodImageDisplay	1	49	49	foodImage.115	FOODEEG_Images\0923.jpg	YN	Right	No	0.682353399985004	0	297418	252
582.9609375	0.682353399985004	health	choicePhaseStart	1	49	49	foodImage.115	FOODEEG_Images\0923.jpg	YN	Right	No	0.682353399985004	0	298477	253
583.634765625	0	health	response	1	49	49	foodImage.115	FOODEEG_Images\0923.jpg	YN	Right	No	0.682353399985004	0	298822	235
584.67578125	1	decision	trialStart	1	50	50	foodImage.40	FOODEEG_Images\0373.jpg	NY	Right	Yes	0.734309899969958	0	299355	251
585.71875	2	decision	foodImageDisplay	1	50	50	foodImage.40	FOODEEG_Images\0373.jpg	NY	Right	Yes	0.734309899969958	0	299889	252
587.78125	0.734309899969958	decision	choicePhaseStart	1	50	50	foodImage.40	FOODEEG_Images\0373.jpg	NY	Right	Yes	0.734309899969958	0	300945	253
588.505859375	0	decision	response	1	50	50	foodImage.40	FOODEEG_Images\0373.jpg	NY	Right	Yes	0.734309899969958	0	301316	235
589.548828125	1	health	trialStart	1	51	51	foodImage.62	FOODEEG_Images\0644.jpg	NY	Right	Yes	0.677116499980912	0	301850	251
590.607421875	2	health	foodImageDisplay	1	51	51	foodImage.62	FOODEEG_Images\0644.jpg	NY	Right	Yes	0.677116499980912	0	302392	252
592.669921875	0.677116499980912	health	choicePhaseStart	1	51	51	foodImage.62	FOODEEG_Images\0644.jpg	NY	Right	Yes	0.677116499980912	0	303448	253
593.337890625	0	health	response	1	51	51	foodImage.62	FOODEEG_Images\0644.jpg	NY	Right	Yes	0.677116499980912	0	303790	235
594.37890625	1	decision	trialStart	1	52	52	foodImage.22	FOODEEG_Images\0236.jpg	YN	Left	Yes	0.658949100004975	0	304323	251
595.439453125	2	decision	foodImageDisplay	1	52	52	foodImage.22	FOODEEG_Images\0236.jpg	YN	Left	Yes	0.658949100004975	0	304866	252
597.501953125	0.658949100004975	decision	choicePhaseStart	1	52	52	foodImage.22	FOODEEG_Images\0236.jpg	YN	Left	Yes	0.658949100004975	0	305922	253
598.154296875	0	decision	response	1	52	52	foodImage.22	FOODEEG_Images\0236.jpg	YN	Left	Yes	0.658949100004975	0	306256	234
599.197265625	1	health	trialStart	1	53	53	foodImage.48	FOODEEG_Images\0494.jpg	NY	Right	Yes	1.53337120002834	0	306790	251
600.23828125	2	health	foodImageDisplay	1	53	53	foodImage.48	FOODEEG_Images\0494.jpg	NY	Right	Yes	1.53337120002834	0	307323	252
602.30078125	1.53337120002834	health	choicePhaseStart	1	53	53	foodImage.48	FOODEEG_Images\0494.jpg	NY	Right	Yes	1.53337120002834	0	308379	253
603.82421875	0	health	response	1	53	53	foodImage.48	FOODEEG_Images\0494.jpg	NY	Right	Yes	1.53337120002834	0	309159	235
604.8671875	1	health	trialStart	1	54	54	foodImage.12	FOODEEG_Images\0181.jpg	NY	Right	Yes	0.957653899968136	0	309693	251
605.908203125	2	health	foodImageDisplay	1	54	54	foodImage.12	FOODEEG_Images\0181.jpg	NY	Right	Yes	0.957653899968136	0	310226	252
607.97265625	0.957653899968136	health	choicePhaseStart	1	54	54	foodImage.12	FOODEEG_Images\0181.jpg	NY	Right	Yes	0.957653899968136	0	311283	253
608.919921875	0	health	response	1	54	54	foodImage.12	FOODEEG_Images\0181.jpg	NY	Right	Yes	0.957653899968136	0	311768	235
609.96484375	1	decision	trialStart	1	55	55	foodImage.41	FOODEEG_Images\0409.jpg	NY	Right	Yes	0.863516499986872	0	312303	251
611.01171875	2	decision	foodImageDisplay	1	55	55	foodImage.41	FOODEEG_Images\0409.jpg	NY	Right	Yes	0.863516499986872	0	312839	252
613.07421875	0.863516499986872	decision	choicePhaseStart	1	55	55	foodImage.41	FOODEEG_Images\0409.jpg	NY	Right	Yes	0.863516499986872	0	313895	253
613.9296875	0	decision	response	1	55	55	foodImage.41	FOODEEG_Images\0409.jpg	NY	Right	Yes	0.863516499986872	0	314333	235
614.97265625	1	taste	trialStart	1	56	56	foodImage.80	FOODEEG_Images\0796.jpg	YN	Left	Yes	0.617970200022683	0	314867	251
616.03125	2	taste	foodImageDisplay	1	56	56	foodImage.80	FOODEEG_Images\0796.jpg	YN	Left	Yes	0.617970200022683	0	315409	252
618.09375	0.617970200022683	taste	choicePhaseStart	1	56	56	foodImage.80	FOODEEG_Images\0796.jpg	YN	Left	Yes	0.617970200022683	0	316465	253
618.705078125	0	taste	response	1	56	56	foodImage.80	FOODEEG_Images\0796.jpg	YN	Left	Yes	0.617970200022683	0	316778	234
619.74609375	1	health	trialStart	1	57	57	foodImage.110	FOODEEG_Images\0918.jpg	YN	Right	No	1.05908629996702	0	317311	251
620.791015625	2	health	foodImageDisplay	1	57	57	foodImage.110	FOODEEG_Images\0918.jpg	YN	Right	No	1.05908629996702	0	317846	252
622.853515625	1.05908629996702	health	choicePhaseStart	1	57	57	foodImage.110	FOODEEG_Images\0918.jpg	YN	Right	No	1.05908629996702	0	318902	253
623.904296875	0	health	response	1	57	57	foodImage.110	FOODEEG_Images\0918.jpg	YN	Right	No	1.05908629996702	0	319440	235
624.9453125	1	health	trialStart	1	58	58	foodImage.103	FOODEEG_Images\0911.jpg	NY	Left	No	0.842446500028018	0	319973	251
625.984375	2	health	foodImageDisplay	1	58	58	foodImage.103	FOODEEG_Images\0911.jpg	NY	Left	No	0.842446500028018	0	320505	252
628.046875	0.842446500028018	health	choicePhaseStart	1	58	58	foodImage.103	FOODEEG_Images\0911.jpg	NY	Left	No	0.842446500028018	0	321561	253
628.880859375	0	health	response	1	58	58	foodImage.103	FOODEEG_Images\0911.jpg	NY	Left	No	0.842446500028018	0	321988	234
629.923828125	1	taste	trialStart	1	59	59	foodImage.32	FOODEEG_Images\0319.jpg	YN	Left	Yes	0.853674600017257	0	322522	251
630.96484375	2	taste	foodImageDisplay	1	59	59	foodImage.32	FOODEEG_Images\0319.jpg	YN	Left	Yes	0.853674600017257	0	323055	252
633.02734375	0.853674600017257	taste	choicePhaseStart	1	59	59	foodImage.32	FOODEEG_Images\0319.jpg	YN	Left	Yes	0.853674600017257	0	324111	253
633.873046875	0	taste	response	1	59	59	foodImage.32	FOODEEG_Images\0319.jpg	YN	Left	Yes	0.853674600017257	0	324544	234
634.9140625	1	decision	trialStart	1	60	60	foodImage.1	FOODEEG_Images\0004.jpg	YN	Left	Yes	0.606715200003237	0	325077	251
635.955078125	2	decision	foodImageDisplay	1	60	60	foodImage.1	FOODEEG_Images\0004.jpg	YN	Left	Yes	0.606715200003237	0	325610	252
638.017578125	0.606715200003237	decision	choicePhaseStart	1	60	60	foodImage.1	FOODEEG_Images\0004.jpg	YN	Left	Yes	0.606715200003237	0	326666	253
638.615234375	0	decision	response	1	60	60	foodImage.1	FOODEEG_Images\0004.jpg	YN	Left	Yes	0.606715200003237	0	326972	234
640.662109375	20.453125	n/a	blockEnd	n/a	n/a	n/a	n/a	n/a	n/a	n/a	n/a	n/a	n/a	328020	254
661.115234375	2	n/a	blockStart	2	n/a	n/a	n/a	n/a	n/a	n/a	n/a	n/a	n/a	338492	250
663.1484375	1	health	trialStart	2	61	1	foodImage.114	FOODEEG_Images\0922.jpg	NY	Right	Yes	0.930091799993534	0	339533	251
664.189453125	2	health	foodImageDisplay	2	61	1	foodImage.114	FOODEEG_Images\0922.jpg	NY	Right	Yes	0.930091799993534	0	340066	252
666.25390625	0.930091799993534	health	choicePhaseStart	2	61	1	foodImage.114	FOODEEG_Images\0922.jpg	NY	Right	Yes	0.930091799993534	0	341123	253
667.173828125	0	health	response	2	61	1	foodImage.114	FOODEEG_Images\0922.jpg	NY	Right	Yes	0.930091799993534	0	341594	235
668.216796875	1	taste	trialStart	2	62	2	foodImage.69	FOODEEG_Images\0693.jpg	YN	Left	Yes	0.870509000029415	0	342128	251
669.2578125	2	taste	foodImageDisplay	2	62	2	foodImage.69	FOODEEG_Images\0693.jpg	YN	Left	Yes	0.870509000029415	0	342661	252
671.3203125	0.870509000029415	taste	choicePhaseStart	2	62	2	foodImage.69	FOODEEG_Images\0693.jpg	YN	Left	Yes	0.870509000029415	0	343717	253
672.181640625	0	taste	response	2	62	2	foodImage.69	FOODEEG_Images\0693.jpg	YN	Left	Yes	0.870509000029415	0	344158	234
673.228515625	1	decision	trialStart	2	63	3	foodImage.72	FOODEEG_Images\0714.jpg	YN	Right	No	0.593741399992723	0	344694	251
674.26953125	2	decision	foodImageDisplay	2	63	3	foodImage.72	FOODEEG_Images\0714.jpg	YN	Right	No	0.593741399992723	0	345227	252
676.33203125	0.593741399992723	decision	choicePhaseStart	2	63	3	foodImage.72	FOODEEG_Images\0714.jpg	YN	Right	No	0.593741399992723	0	346283	253
676.91796875	0	decision	response	2	63	3	foodImage.72	FOODEEG_Images\0714.jpg	YN	Right	No	0.593741399992723	0	346583	235
677.958984375	1	decision	trialStart	2	64	4	foodImage.23	FOODEEG_Images\0244.jpg	NY	Right	Yes	0.550449499976821	0	347116	251
679	2	decision	foodImageDisplay	2	64	4	foodImage.23	FOODEEG_Images\0244.jpg	NY	Right	Yes	0.550449499976821	0	347649	252
681.0625	0.550449499976821	decision	choicePhaseStart	2	64	4	foodImage.23	FOODEEG_Images\0244.jpg	NY	Right	Yes	0.550449499976821	0	348705	253
681.60546875	0	decision	response	2	64	4	foodImage.23	FOODEEG_Images\0244.jpg	NY	Right	Yes	0.550449499976821	0	348983	235
682.6484375	1	decision	trialStart	2	65	5	foodImage.82	FOODEEG_Images\0805.jpg	NY	Left	No	1.01625099999364	0	349517	251
683.703125	2	decision	foodImageDisplay	2	65	5	foodImage.82	FOODEEG_Images\0805.jpg	NY	Left	No	1.01625099999364	0	350057	252
685.767578125	1.01625099999364	decision	choicePhaseStart	2	65	5	foodImage.82	FOODEEG_Images\0805.jpg	NY	Left	No	1.01625099999364	0	351114	253
686.7734375	0	decision	response	2	65	5	foodImage.82	FOODEEG_Images\0805.jpg	NY	Left	No	1.01625099999364	0	351629	234
687.81640625	1	decision	trialStart	2	66	6	foodImage.53	FOODEEG_Images\0547.jpg	YN	Left	Yes	0.960296000004746	0	352163	251
688.873046875	2	decision	foodImageDisplay	2	66	6	foodImage.53	FOODEEG_Images\0547.jpg	YN	Left	Yes	0.960296000004746	0	352704	252
690.93359375	0.960296000004746	decision	choicePhaseStart	2	66	6	foodImage.53	FOODEEG_Images\0547.jpg	YN	Left	Yes	0.960296000004746	0	353759	253
691.884765625	0	decision	response	2	66	6	foodImage.53	FOODEEG_Images\0547.jpg	YN	Left	Yes	0.960296000004746	0	354246	234
692.92578125	1	taste	trialStart	2	67	7	foodImage.55	FOODEEG_Images\0567.jpg	NY	Left	No	1.40124430001015	0	354779	251
693.982421875	2	taste	foodImageDisplay	2	67	7	foodImage.55	FOODEEG_Images\0567.jpg	NY	Left	No	1.40124430001015	0	355320	252
696.044921875	1.40124430001015	taste	choicePhaseStart	2	67	7	foodImage.55	FOODEEG_Images\0567.jpg	NY	Left	No	1.40124430001015	0	356376	253
697.4375	0	taste	response	2	67	7	foodImage.55	FOODEEG_Images\0567.jpg	NY	Left	No	1.40124430001015	0	357089	234
698.48046875	1	health	trialStart	2	68	8	foodImage.74	FOODEEG_Images\0752.jpg	NY	Right	Yes	0.889515799994115	0	357623	251
699.533203125	2	health	foodImageDisplay	2	68	8	foodImage.74	FOODEEG_Images\0752.jpg	NY	Right	Yes	0.889515799994115	0	358162	252
701.595703125	0.889515799994115	health	choicePhaseStart	2	68	8	foodImage.74	FOODEEG_Images\0752.jpg	NY	Right	Yes	0.889515799994115	0	359218	253
702.4765625	0	health	response	2	68	8	foodImage.74	FOODEEG_Images\0752.jpg	NY	Right	Yes	0.889515799994115	0	359669	235
703.51953125	1	health	trialStart	2	69	9	foodImage.27	FOODEEG_Images\0263.jpg	NY	Right	Yes	1.07551679998869	0	360203	251
704.5625	2	health	foodImageDisplay	2	69	9	foodImage.27	FOODEEG_Images\0263.jpg	NY	Right	Yes	1.07551679998869	0	360737	252
706.625	1.07551679998869	health	choicePhaseStart	2	69	9	foodImage.27	FOODEEG_Images\0263.jpg	NY	Right	Yes	1.07551679998869	0	361793	253
707.693359375	0	health	response	2	69	9	foodImage.27	FOODEEG_Images\0263.jpg	NY	Right	Yes	1.07551679998869	0	362340	235
708.734375	1	health	trialStart	2	70	10	foodImage.6	FOODEEG_Images\0113.jpg	NY	Left	No	0.575444300018717	0	362873	251
709.775390625	2	health	foodImageDisplay	2	70	10	foodImage.6	FOODEEG_Images\0113.jpg	NY	Left	No	0.575444300018717	0	363406	252
711.837890625	0.575444300018717	health	choicePhaseStart	2	70	10	foodImage.6	FOODEEG_Images\0113.jpg	NY	Left	No	0.575444300018717	0	364462	253
712.404296875	0	health	response	2	70	10	foodImage.6	FOODEEG_Images\0113.jpg	NY	Left	No	0.575444300018717	0	364752	234
713.451171875	1	taste	trialStart	2	71	11	foodImage.7	FOODEEG_Images\0116.jpg	YN	Left	Yes	0.730956299987156	0	365288	251
714.4921875	2	taste	foodImageDisplay	2	71	11	foodImage.7	FOODEEG_Images\0116.jpg	YN	Left	Yes	0.730956299987156	0	365821	252
716.5546875	0.730956299987156	taste	choicePhaseStart	2	71	11	foodImage.7	FOODEEG_Images\0116.jpg	YN	Left	Yes	0.730956299987156	0	366877	253
717.27734375	0	taste	response	2	71	11	foodImage.7	FOODEEG_Images\0116.jpg	YN	Left	Yes	0.730956299987156	0	367247	234
718.3203125	1	taste	trialStart	2	72	12	foodImage.17	FOODEEG_Images\0199.jpg	YN	Left	Yes	0.542513800028246	0	367781	251
719.361328125	2	taste	foodImageDisplay	2	72	12	foodImage.17	FOODEEG_Images\0199.jpg	YN	Left	Yes	0.542513800028246	0	368314	252
721.423828125	0.542513800028246	taste	choicePhaseStart	2	72	12	foodImage.17	FOODEEG_Images\0199.jpg	YN	Left	Yes	0.542513800028246	0	369370	253
721.95703125	0	taste	response	2	72	12	foodImage.17	FOODEEG_Images\0199.jpg	YN	Left	Yes	0.542513800028246	0	369643	234
722.99609375	1	health	trialStart	2	73	13	foodImage.65	FOODEEG_Images\0658.jpg	NY	Left	No	0.62579670001287	0	370175	251
724.037109375	2	health	foodImageDisplay	2	73	13	foodImage.65	FOODEEG_Images\0658.jpg	NY	Left	No	0.62579670001287	0	370708	252
726.099609375	0.62579670001287	health	choicePhaseStart	2	73	13	foodImage.65	FOODEEG_Images\0658.jpg	NY	Left	No	0.62579670001287	0	371764	253
726.716796875	0	health	response	2	73	13	foodImage.65	FOODEEG_Images\0658.jpg	NY	Left	No	0.62579670001287	0	372080	234
727.759765625	1	decision	trialStart	2	74	14	foodImage.9	FOODEEG_Images\0138.jpg	YN	Left	Yes	0.973008000000846	0	372614	251
728.81640625	2	decision	foodImageDisplay	2	74	14	foodImage.9	FOODEEG_Images\0138.jpg	YN	Left	Yes	0.973008000000846	0	373155	252
730.87890625	0.973008000000846	decision	choicePhaseStart	2	74	14	foodImage.9	FOODEEG_Images\0138.jpg	YN	Left	Yes	0.973008000000846	0	374211	253
731.84375	0	decision	response	2	74	14	foodImage.9	FOODEEG_Images\0138.jpg	YN	Left	Yes	0.973008000000846	0	374705	234
732.88671875	1	decision	trialStart	2	75	15	foodImage.81	FOODEEG_Images\0797.jpg	YN	Right	No	0.717353299958631	0	375239	251
733.9453125	2	decision	foodImageDisplay	2	75	15	foodImage.81	FOODEEG_Images\0797.jpg	YN	Right	No	0.717353299958631	0	375781	252
736.0078125	0.717353299958631	decision	choicePhaseStart	2	75	15	foodImage.81	FOODEEG_Images\0797.jpg	YN	Right	No	0.717353299958631	0	376837	253
736.716796875	0	decision	response	2	75	15	foodImage.81	FOODEEG_Images\0797.jpg	YN	Right	No	0.717353299958631	0	377200	235
737.7578125	1	health	trialStart	2	76	16	foodImage.118	FOODEEG_Images\0926.jpg	YN	Right	No	1.2918376000016	0	377733	251
738.794921875	2	health	foodImageDisplay	2	76	16	foodImage.118	FOODEEG_Images\0926.jpg	YN	Right	No	1.2918376000016	0	378264	252
740.85546875	1.2918376000016	health	choicePhaseStart	2	76	16	foodImage.118	FOODEEG_Images\0926.jpg	YN	Right	No	1.2918376000016	0	379319	253
742.138671875	0	health	response	2	76	16	foodImage.118	FOODEEG_Images\0926.jpg	YN	Right	No	1.2918376000016	0	379976	235
743.177734375	1	decision	trialStart	2	77	17	foodImage.104	FOODEEG_Images\0912.jpg	NY	Right	Yes	1.09675700002117	0	380508	251
744.21484375	2	decision	foodImageDisplay	2	77	17	foodImage.104	FOODEEG_Images\0912.jpg	NY	Right	Yes	1.09675700002117	0	381039	252
746.275390625	1.09675700002117	decision	choicePhaseStart	2	77	17	foodImage.104	FOODEEG_Images\0912.jpg	NY	Right	Yes	1.09675700002117	0	382094	253
747.36328125	0	decision	response	2	77	17	foodImage.104	FOODEEG_Images\0912.jpg	NY	Right	Yes	1.09675700002117	0	382651	235
748.40234375	1	health	trialStart	2	78	18	foodImage.61	FOODEEG_Images\0640.jpg	NY	Right	Yes	1.01988789997995	0	383183	251
749.443359375	2	health	foodImageDisplay	2	78	18	foodImage.61	FOODEEG_Images\0640.jpg	NY	Right	Yes	1.01988789997995	0	383716	252
751.505859375	1.01988789997995	health	choicePhaseStart	2	78	18	foodImage.61	FOODEEG_Images\0640.jpg	NY	Right	Yes	1.01988789997995	0	384772	253
752.515625	0	health	response	2	78	18	foodImage.61	FOODEEG_Images\0640.jpg	NY	Right	Yes	1.01988789997995	0	385289	235
753.552734375	1	decision	trialStart	2	79	19	foodImage.21	FOODEEG_Images\0234.jpg	YN	Right	No	0.396957799966913	0	385820	251
754.609375	2	decision	foodImageDisplay	2	79	19	foodImage.21	FOODEEG_Images\0234.jpg	YN	Right	No	0.396957799966913	0	386361	252
756.671875	0.396957799966913	decision	choicePhaseStart	2	79	19	foodImage.21	FOODEEG_Images\0234.jpg	YN	Right	No	0.396957799966913	0	387417	253
757.05859375	0	decision	response	2	79	19	foodImage.21	FOODEEG_Images\0234.jpg	YN	Right	No	0.396957799966913	0	387615	235
758.09765625	1	health	trialStart	2	80	20	foodImage.4	FOODEEG_Images\0065.jpg	NY	Right	Yes	2.28560960001778	0	388147	251
759.15234375	2	health	foodImageDisplay	2	80	20	foodImage.4	FOODEEG_Images\0065.jpg	NY	Right	Yes	2.28560960001778	0	388687	252
761.21484375	2.28560960001778	health	choicePhaseStart	2	80	20	foodImage.4	FOODEEG_Images\0065.jpg	NY	Right	Yes	2.28560960001778	0	389743	253
763.490234375	0	health	response	2	80	20	foodImage.4	FOODEEG_Images\0065.jpg	NY	Right	Yes	2.28560960001778	0	390908	235
764.529296875	1	decision	trialStart	2	81	21	foodImage.79	FOODEEG_Images\0794.jpg	YN	Left	Yes	0.502912099997047	0	391440	251
765.572265625	2	decision	foodImageDisplay	2	81	21	foodImage.79	FOODEEG_Images\0794.jpg	YN	Left	Yes	0.502912099997047	0	391974	252
767.634765625	0.502912099997047	decision	choicePhaseStart	2	81	21	foodImage.79	FOODEEG_Images\0794.jpg	YN	Left	Yes	0.502912099997047	0	393030	253
768.130859375	0	decision	response	2	81	21	foodImage.79	FOODEEG_Images\0794.jpg	YN	Left	Yes	0.502912099997047	0	393284	234
769.171875	1	taste	trialStart	2	82	22	foodImage.16	FOODEEG_Images\0196.jpg	NY	Right	Yes	1.62444490002235	0	393817	251
770.228515625	2	taste	foodImageDisplay	2	82	22	foodImage.16	FOODEEG_Images\0196.jpg	NY	Right	Yes	1.62444490002235	0	394358	252
772.291015625	1.62444490002235	taste	choicePhaseStart	2	82	22	foodImage.16	FOODEEG_Images\0196.jpg	NY	Right	Yes	1.62444490002235	0	395414	253
773.90625	0	taste	response	2	82	22	foodImage.16	FOODEEG_Images\0196.jpg	NY	Right	Yes	1.62444490002235	0	396241	235
774.947265625	1	health	trialStart	2	83	23	foodImage.84	FOODEEG_Images\0830.jpg	YN	Left	Yes	0.676634999981616	0	396774	251
776.0078125	2	health	foodImageDisplay	2	83	23	foodImage.84	FOODEEG_Images\0830.jpg	YN	Left	Yes	0.676634999981616	0	397317	252
778.0703125	0.676634999981616	health	choicePhaseStart	2	83	23	foodImage.84	FOODEEG_Images\0830.jpg	YN	Left	Yes	0.676634999981616	0	398373	253
778.73828125	0	health	response	2	83	23	foodImage.84	FOODEEG_Images\0830.jpg	YN	Left	Yes	0.676634999981616	0	398715	234
779.78125	1	health	trialStart	2	84	24	foodImage.105	FOODEEG_Images\0913.jpg	YN	Left	Yes	1.18479379999917	0	399249	251
780.8203125	2	health	foodImageDisplay	2	84	24	foodImage.105	FOODEEG_Images\0913.jpg	YN	Left	Yes	1.18479379999917	0	399781	252
782.8828125	1.18479379999917	health	choicePhaseStart	2	84	24	foodImage.105	FOODEEG_Images\0913.jpg	YN	Left	Yes	1.18479379999917	0	400837	253
784.05859375	0	health	response	2	84	24	foodImage.105	FOODEEG_Images\0913.jpg	YN	Left	Yes	1.18479379999917	0	401439	234
785.1015625	1	taste	trialStart	2	85	25	foodImage.72	FOODEEG_Images\0714.jpg	YN	Right	No	1.26722419995349	0	401973	251
786.14453125	2	taste	foodImageDisplay	2	85	25	foodImage.72	FOODEEG_Images\0714.jpg	YN	Right	No	1.26722419995349	0	402507	252
788.20703125	1.26722419995349	taste	choicePhaseStart	2	85	25	foodImage.72	FOODEEG_Images\0714.jpg	YN	Right	No	1.26722419995349	0	403563	253
789.46484375	0	taste	response	2	85	25	foodImage.72	FOODEEG_Images\0714.jpg	YN	Right	No	1.26722419995349	0	404207	235
790.509765625	1	decision	trialStart	2	86	26	foodImage.55	FOODEEG_Images\0567.jpg	NY	Left	No	0.748359300021548	0	404742	251
791.568359375	2	decision	foodImageDisplay	2	86	26	foodImage.55	FOODEEG_Images\0567.jpg	NY	Left	No	0.748359300021548	0	405284	252
793.630859375	0.748359300021548	decision	choicePhaseStart	2	86	26	foodImage.55	FOODEEG_Images\0567.jpg	NY	Left	No	0.748359300021548	0	406340	253
794.369140625	0	decision	response	2	86	26	foodImage.55	FOODEEG_Images\0567.jpg	NY	Left	No	0.748359300021548	0	406718	234
795.412109375	1	decision	trialStart	2	87	27	foodImage.54	FOODEEG_Images\0560.jpg	YN	Left	Yes	1.02207519998774	0	407252	251
796.470703125	2	decision	foodImageDisplay	2	87	27	foodImage.54	FOODEEG_Images\0560.jpg	YN	Left	Yes	1.02207519998774	0	407794	252
798.533203125	1.02207519998774	decision	choicePhaseStart	2	87	27	foodImage.54	FOODEEG_Images\0560.jpg	YN	Left	Yes	1.02207519998774	0	408850	253
799.546875	0	decision	response	2	87	27	foodImage.54	FOODEEG_Images\0560.jpg	YN	Left	Yes	1.02207519998774	0	409369	234
800.58984375	1	health	trialStart	2	88	28	foodImage.38	FOODEEG_Images\0365.jpg	NY	Right	Yes	0.622924000024796	0	409903	251
801.62890625	2	health	foodImageDisplay	2	88	28	foodImage.38	FOODEEG_Images\0365.jpg	NY	Right	Yes	0.622924000024796	0	410435	252
803.69140625	0.622924000024796	health	choicePhaseStart	2	88	28	foodImage.38	FOODEEG_Images\0365.jpg	NY	Right	Yes	0.622924000024796	0	411491	253
804.3046875	0	health	response	2	88	28	foodImage.38	FOODEEG_Images\0365.jpg	NY	Right	Yes	0.622924000024796	0	411805	235
805.34765625	1	health	trialStart	2	89	29	foodImage.39	FOODEEG_Images\0367.jpg	YN	Left	Yes	0.513694199966267	0	412339	251
806.384765625	2	health	foodImageDisplay	2	89	29	foodImage.39	FOODEEG_Images\0367.jpg	YN	Left	Yes	0.513694199966267	0	412870	252
808.447265625	0.513694199966267	health	choicePhaseStart	2	89	29	foodImage.39	FOODEEG_Images\0367.jpg	YN	Left	Yes	0.513694199966267	0	413926	253
808.953125	0	health	response	2	89	29	foodImage.39	FOODEEG_Images\0367.jpg	YN	Left	Yes	0.513694199966267	0	414185	234
809.99609375	1	health	trialStart	2	90	30	foodImage.37	FOODEEG_Images\0359.jpg	YN	Left	Yes	0.548705199966207	0	414719	251
811.037109375	2	health	foodImageDisplay	2	90	30	foodImage.37	FOODEEG_Images\0359.jpg	YN	Left	Yes	0.548705199966207	0	415252	252
813.099609375	0.548705199966207	health	choicePhaseStart	2	90	30	foodImage.37	FOODEEG_Images\0359.jpg	YN	Left	Yes	0.548705199966207	0	416308	253
813.640625	0	health	response	2	90	30	foodImage.37	FOODEEG_Images\0359.jpg	YN	Left	Yes	0.548705199966207	0	416585	234
814.689453125	1	health	trialStart	2	91	31	foodImage.33	FOODEEG_Images\0329.jpg	YN	Left	Yes	0.847318699990865	0	417122	251
815.732421875	2	health	foodImageDisplay	2	91	31	foodImage.33	FOODEEG_Images\0329.jpg	YN	Left	Yes	0.847318699990865	0	417656	252
817.794921875	0.847318699990865	health	choicePhaseStart	2	91	31	foodImage.33	FOODEEG_Images\0329.jpg	YN	Left	Yes	0.847318699990865	0	418712	253
818.6328125	0	health	response	2	91	31	foodImage.33	FOODEEG_Images\0329.jpg	YN	Left	Yes	0.847318699990865	0	419141	234
819.673828125	1	decision	trialStart	2	92	32	foodImage.66	FOODEEG_Images\0676.jpg	NY	Right	Yes	0.6965262000449	0	419674	251
820.71484375	2	decision	foodImageDisplay	2	92	32	foodImage.66	FOODEEG_Images\0676.jpg	NY	Right	Yes	0.6965262000449	0	420207	252
822.77734375	0.6965262000449	decision	choicePhaseStart	2	92	32	foodImage.66	FOODEEG_Images\0676.jpg	NY	Right	Yes	0.6965262000449	0	421263	253
823.46484375	0	decision	response	2	92	32	foodImage.66	FOODEEG_Images\0676.jpg	NY	Right	Yes	0.6965262000449	0	421615	235
824.513671875	1	health	trialStart	2	93	33	foodImage.29	FOODEEG_Images\0278.jpg	YN	Left	Yes	1.32901409995975	0	422152	251
825.5546875	2	health	foodImageDisplay	2	93	33	foodImage.29	FOODEEG_Images\0278.jpg	YN	Left	Yes	1.32901409995975	0	422685	252
827.6171875	1.32901409995975	health	choicePhaseStart	2	93	33	foodImage.29	FOODEEG_Images\0278.jpg	YN	Left	Yes	1.32901409995975	0	423741	253
828.935546875	0	health	response	2	93	33	foodImage.29	FOODEEG_Images\0278.jpg	YN	Left	Yes	1.32901409995975	0	424416	234
829.982421875	1	health	trialStart	2	94	34	foodImage.120	FOODEEG_Images\0928.jpg	NY	Left	No	0.59712180000497	0	424952	251
831.029296875	2	health	foodImageDisplay	2	94	34	foodImage.120	FOODEEG_Images\0928.jpg	NY	Left	No	0.59712180000497	0	425488	252
833.091796875	0.59712180000497	health	choicePhaseStart	2	94	34	foodImage.120	FOODEEG_Images\0928.jpg	NY	Left	No	0.59712180000497	0	426544	253
833.6796875	0	health	response	2	94	34	foodImage.120	FOODEEG_Images\0928.jpg	NY	Left	No	0.59712180000497	0	426845	234
834.720703125	1	decision	trialStart	2	95	35	foodImage.86	FOODEEG_Images\0844.jpg	YN	Right	No	0.83154340001056	0	427378	251
835.787109375	2	decision	foodImageDisplay	2	95	35	foodImage.86	FOODEEG_Images\0844.jpg	YN	Right	No	0.83154340001056	0	427924	252
837.849609375	0.83154340001056	decision	choicePhaseStart	2	95	35	foodImage.86	FOODEEG_Images\0844.jpg	YN	Right	No	0.83154340001056	0	428980	253
838.671875	0	decision	response	2	95	35	foodImage.86	FOODEEG_Images\0844.jpg	YN	Right	No	0.83154340001056	0	429401	235
839.71484375	1	decision	trialStart	2	96	36	foodImage.10	FOODEEG_Images\0145.jpg	NY	Right	Yes	0.589915100019425	0	429935	251
840.7734375	2	decision	foodImageDisplay	2	96	36	foodImage.10	FOODEEG_Images\0145.jpg	NY	Right	Yes	0.589915100019425	0	430477	252
842.8359375	0.589915100019425	decision	choicePhaseStart	2	96	36	foodImage.10	FOODEEG_Images\0145.jpg	NY	Right	Yes	0.589915100019425	0	431533	253
843.416015625	0	decision	response	2	96	36	foodImage.10	FOODEEG_Images\0145.jpg	NY	Right	Yes	0.589915100019425	0	431830	235
844.458984375	1	taste	trialStart	2	97	37	foodImage.102	FOODEEG_Images\0910.jpg	YN	Right	No	0.742141399998218	0	432364	251
845.513671875	2	taste	foodImageDisplay	2	97	37	foodImage.102	FOODEEG_Images\0910.jpg	YN	Right	No	0.742141399998218	0	432904	252
847.578125	0.742141399998218	taste	choicePhaseStart	2	97	37	foodImage.102	FOODEEG_Images\0910.jpg	YN	Right	No	0.742141399998218	0	433961	253
848.3125	0	taste	response	2	97	37	foodImage.102	FOODEEG_Images\0910.jpg	YN	Right	No	0.742141399998218	0	434337	235
849.353515625	1	health	trialStart	2	98	38	foodImage.81	FOODEEG_Images\0797.jpg	YN	Left	Yes	0.704036700015422	0	434870	251
850.41015625	2	health	foodImageDisplay	2	98	38	foodImage.81	FOODEEG_Images\0797.jpg	YN	Left	Yes	0.704036700015422	0	435411	252
852.47265625	0.704036700015422	health	choicePhaseStart	2	98	38	foodImage.81	FOODEEG_Images\0797.jpg	YN	Left	Yes	0.704036700015422	0	436467	253
853.16796875	0	health	response	2	98	38	foodImage.81	FOODEEG_Images\0797.jpg	YN	Left	Yes	0.704036700015422	0	436823	234
854.2109375	1	decision	trialStart	2	99	39	foodImage.38	FOODEEG_Images\0365.jpg	NY	Right	Yes	0.503627600031905	0	437357	251
855.25	2	decision	foodImageDisplay	2	99	39	foodImage.38	FOODEEG_Images\0365.jpg	NY	Right	Yes	0.503627600031905	0	437889	252
857.310546875	0.503627600031905	decision	choicePhaseStart	2	99	39	foodImage.38	FOODEEG_Images\0365.jpg	NY	Right	Yes	0.503627600031905	0	438944	253
857.806640625	0	decision	response	2	99	39	foodImage.38	FOODEEG_Images\0365.jpg	NY	Right	Yes	0.503627600031905	0	439198	235
858.849609375	1	health	trialStart	2	100	40	foodImage.64	FOODEEG_Images\0647.jpg	NY	Right	Yes	1.05741840001428	0	439732	251
859.904296875	2	health	foodImageDisplay	2	100	40	foodImage.64	FOODEEG_Images\0647.jpg	NY	Right	Yes	1.05741840001428	0	440272	252
861.966796875	1.05741840001428	health	choicePhaseStart	2	100	40	foodImage.64	FOODEEG_Images\0647.jpg	NY	Right	Yes	1.05741840001428	0	441328	253
863.015625	0	health	response	2	100	40	foodImage.64	FOODEEG_Images\0647.jpg	NY	Right	Yes	1.05741840001428	0	441865	235
864.056640625	1	health	trialStart	2	101	41	foodImage.2	FOODEEG_Images\0028.jpg	YN	Right	No	2.08541770000011	0	442398	251
865.099609375	2	health	foodImageDisplay	2	101	41	foodImage.2	FOODEEG_Images\0028.jpg	YN	Right	No	2.08541770000011	0	442932	252
867.162109375	2.08541770000011	health	choicePhaseStart	2	101	41	foodImage.2	FOODEEG_Images\0028.jpg	YN	Right	No	2.08541770000011	0	443988	253
869.23828125	0	health	response	2	101	41	foodImage.2	FOODEEG_Images\0028.jpg	YN	Right	No	2.08541770000011	0	445051	235
870.287109375	1	health	trialStart	2	102	42	foodImage.46	FOODEEG_Images\0479.jpg	NY	Right	Yes	0.469372300023679	0	445588	251
871.34765625	2	health	foodImageDisplay	2	102	42	foodImage.46	FOODEEG_Images\0479.jpg	NY	Right	Yes	0.469372300023679	0	446131	252
873.41015625	0.469372300023679	health	choicePhaseStart	2	102	42	foodImage.46	FOODEEG_Images\0479.jpg	NY	Right	Yes	0.469372300023679	0	447187	253
873.87109375	0	health	response	2	102	42	foodImage.46	FOODEEG_Images\0479.jpg	NY	Right	Yes	0.469372300023679	0	447423	235
874.9140625	1	decision	trialStart	2	103	43	foodImage.61	FOODEEG_Images\0640.jpg	YN	Left	Yes	0.996829899959266	0	447957	251
875.955078125	2	decision	foodImageDisplay	2	103	43	foodImage.61	FOODEEG_Images\0640.jpg	YN	Left	Yes	0.996829899959266	0	448490	252
878.017578125	0.996829899959266	decision	choicePhaseStart	2	103	43	foodImage.61	FOODEEG_Images\0640.jpg	YN	Left	Yes	0.996829899959266	0	449546	253
879.005859375	0	decision	response	2	103	43	foodImage.61	FOODEEG_Images\0640.jpg	YN	Left	Yes	0.996829899959266	0	450052	234
880.046875	1	taste	trialStart	2	104	44	foodImage.76	FOODEEG_Images\0766.jpg	YN	Left	Yes	0.702816599979997	0	450585	251
881.091796875	2	taste	foodImageDisplay	2	104	44	foodImage.76	FOODEEG_Images\0766.jpg	YN	Left	Yes	0.702816599979997	0	451120	252
883.15234375	0.702816599979997	taste	choicePhaseStart	2	104	44	foodImage.76	FOODEEG_Images\0766.jpg	YN	Left	Yes	0.702816599979997	0	452175	253
883.845703125	0	taste	response	2	104	44	foodImage.76	FOODEEG_Images\0766.jpg	YN	Left	Yes	0.702816599979997	0	452530	234
884.88671875	1	health	trialStart	2	105	45	foodImage.3	FOODEEG_Images\0046.jpg	YN	Right	No	0.684655999997631	0	453063	251
885.931640625	2	health	foodImageDisplay	2	105	45	foodImage.3	FOODEEG_Images\0046.jpg	YN	Right	No	0.684655999997631	0	453598	252
887.994140625	0.684655999997631	health	choicePhaseStart	2	105	45	foodImage.3	FOODEEG_Images\0046.jpg	YN	Right	No	0.684655999997631	0	454654	253
888.669921875	0	health	response	2	105	45	foodImage.3	FOODEEG_Images\0046.jpg	YN	Right	No	0.684655999997631	0	455000	235
889.712890625	1	decision	trialStart	2	106	46	foodImage.29	FOODEEG_Images\0278.jpg	NY	Left	No	0.551971299981233	0	455534	251
890.751953125	2	decision	foodImageDisplay	2	106	46	foodImage.29	FOODEEG_Images\0278.jpg	NY	Left	No	0.551971299981233	0	456066	252
892.814453125	0.551971299981233	decision	choicePhaseStart	2	106	46	foodImage.29	FOODEEG_Images\0278.jpg	NY	Left	No	0.551971299981233	0	457122	253
893.357421875	0	decision	response	2	106	46	foodImage.29	FOODEEG_Images\0278.jpg	NY	Left	No	0.551971299981233	0	457400	234
894.400390625	1	decision	trialStart	2	107	47	foodImage.96	FOODEEG_Images\0904.jpg	NY	Left	No	0.752965699997731	0	457934	251
895.439453125	2	decision	foodImageDisplay	2	107	47	foodImage.96	FOODEEG_Images\0904.jpg	NY	Left	No	0.752965699997731	0	458466	252
897.501953125	0.752965699997731	decision	choicePhaseStart	2	107	47	foodImage.96	FOODEEG_Images\0904.jpg	NY	Left	No	0.752965699997731	0	459522	253
898.24609375	0	decision	response	2	107	47	foodImage.96	FOODEEG_Images\0904.jpg	NY	Left	No	0.752965699997731	0	459903	234
899.287109375	1	taste	trialStart	2	108	48	foodImage.50	FOODEEG_Images\0529.jpg	NY	Left	No	1.34910029999446	0	460436	251
900.34765625	2	taste	foodImageDisplay	2	108	48	foodImage.50	FOODEEG_Images\0529.jpg	NY	Left	No	1.34910029999446	0	460979	252
902.41015625	1.34910029999446	taste	choicePhaseStart	2	108	48	foodImage.50	FOODEEG_Images\0529.jpg	NY	Left	No	1.34910029999446	0	462035	253
903.75	0	taste	response	2	108	48	foodImage.50	FOODEEG_Images\0529.jpg	NY	Left	No	1.34910029999446	0	462721	234
904.79296875	1	taste	trialStart	2	109	49	foodImage.54	FOODEEG_Images\0560.jpg	NY	Right	Yes	0.817609100020491	0	463255	251
905.853515625	2	taste	foodImageDisplay	2	109	49	foodImage.54	FOODEEG_Images\0560.jpg	NY	Right	Yes	0.817609100020491	0	463798	252
907.916015625	0.817609100020491	taste	choicePhaseStart	2	109	49	foodImage.54	FOODEEG_Images\0560.jpg	NY	Right	Yes	0.817609100020491	0	464854	253
908.724609375	0	taste	response	2	109	49	foodImage.54	FOODEEG_Images\0560.jpg	NY	Right	Yes	0.817609100020491	0	465268	235
909.7734375	1	health	trialStart	2	110	50	foodImage.82	FOODEEG_Images\0805.jpg	NY	Right	Yes	0.931015900045168	0	465805	251
910.826171875	2	health	foodImageDisplay	2	110	50	foodImage.82	FOODEEG_Images\0805.jpg	NY	Right	Yes	0.931015900045168	0	466344	252
912.888671875	0.931015900045168	health	choicePhaseStart	2	110	50	foodImage.82	FOODEEG_Images\0805.jpg	NY	Right	Yes	0.931015900045168	0	467400	253
913.8125	0	health	response	2	110	50	foodImage.82	FOODEEG_Images\0805.jpg	NY	Right	Yes	0.931015900045168	0	467873	235
914.857421875	1	taste	trialStart	2	111	51	foodImage.68	FOODEEG_Images\0685.jpg	NY	Right	Yes	1.03329220000887	0	468408	251
915.935546875	2	taste	foodImageDisplay	2	111	51	foodImage.68	FOODEEG_Images\0685.jpg	NY	Right	Yes	1.03329220000887	0	468960	252
917.998046875	1.03329220000887	taste	choicePhaseStart	2	111	51	foodImage.68	FOODEEG_Images\0685.jpg	NY	Right	Yes	1.03329220000887	0	470016	253
919.021484375	0	taste	response	2	111	51	foodImage.68	FOODEEG_Images\0685.jpg	NY	Right	Yes	1.03329220000887	0	470540	235
920.064453125	1	taste	trialStart	2	112	52	foodImage.98	FOODEEG_Images\0906.jpg	YN	Left	Yes	0.495991599978879	0	471074	251
921.103515625	2	taste	foodImageDisplay	2	112	52	foodImage.98	FOODEEG_Images\0906.jpg	YN	Left	Yes	0.495991599978879	0	471606	252
923.166015625	0.495991599978879	taste	choicePhaseStart	2	112	52	foodImage.98	FOODEEG_Images\0906.jpg	YN	Left	Yes	0.495991599978879	0	472662	253
923.65234375	0	taste	response	2	112	52	foodImage.98	FOODEEG_Images\0906.jpg	YN	Left	Yes	0.495991599978879	0	472911	234
924.6953125	1	health	trialStart	2	113	53	foodImage.92	FOODEEG_Images\0900.jpg	NY	Left	No	1.06182989996159	0	473445	251
925.751953125	2	health	foodImageDisplay	2	113	53	foodImage.92	FOODEEG_Images\0900.jpg	NY	Left	No	1.06182989996159	0	473986	252
927.81640625	1.06182989996159	health	choicePhaseStart	2	113	53	foodImage.92	FOODEEG_Images\0900.jpg	NY	Left	No	1.06182989996159	0	475043	253
928.869140625	0	health	response	2	113	53	foodImage.92	FOODEEG_Images\0900.jpg	NY	Left	No	1.06182989996159	0	475582	234
929.91015625	1	decision	trialStart	2	114	54	foodImage.42	FOODEEG_Images\0438.jpg	YN	Left	Yes	1.30873739998788	0	476115	251
931.001953125	2	decision	foodImageDisplay	2	114	54	foodImage.42	FOODEEG_Images\0438.jpg	YN	Left	Yes	1.30873739998788	0	476674	252
933.064453125	1.30873739998788	decision	choicePhaseStart	2	114	54	foodImage.42	FOODEEG_Images\0438.jpg	YN	Left	Yes	1.30873739998788	0	477730	253
934.36328125	0	decision	response	2	114	54	foodImage.42	FOODEEG_Images\0438.jpg	YN	Left	Yes	1.30873739998788	0	478395	234
935.40625	1	decision	trialStart	2	115	55	foodImage.115	FOODEEG_Images\0923.jpg	NY	Left	No	0.654284300049767	0	478929	251
936.4453125	2	decision	foodImageDisplay	2	115	55	foodImage.115	FOODEEG_Images\0923.jpg	NY	Left	No	0.654284300049767	0	479461	252
938.509765625	0.654284300049767	decision	choicePhaseStart	2	115	55	foodImage.115	FOODEEG_Images\0923.jpg	NY	Left	No	0.654284300049767	0	480518	253
939.15625	0	decision	response	2	115	55	foodImage.115	FOODEEG_Images\0923.jpg	NY	Left	No	0.654284300049767	0	480849	234
940.19921875	1	taste	trialStart	2	116	56	foodImage.79	FOODEEG_Images\0794.jpg	NY	Right	Yes	0.874575400026515	0	481383	251
941.244140625	2	taste	foodImageDisplay	2	116	56	foodImage.79	FOODEEG_Images\0794.jpg	NY	Right	Yes	0.874575400026515	0	481918	252
943.306640625	0.874575400026515	taste	choicePhaseStart	2	116	56	foodImage.79	FOODEEG_Images\0794.jpg	NY	Right	Yes	0.874575400026515	0	482974	253
944.171875	0	taste	response	2	116	56	foodImage.79	FOODEEG_Images\0794.jpg	NY	Right	Yes	0.874575400026515	0	483417	235
945.21484375	1	decision	trialStart	2	117	57	foodImage.71	FOODEEG_Images\0713.jpg	NY	Right	Yes	0.564571399998385	0	483951	251
946.255859375	2	decision	foodImageDisplay	2	117	57	foodImage.71	FOODEEG_Images\0713.jpg	NY	Right	Yes	0.564571399998385	0	484484	252
948.318359375	0.564571399998385	decision	choicePhaseStart	2	117	57	foodImage.71	FOODEEG_Images\0713.jpg	NY	Right	Yes	0.564571399998385	0	485540	253
948.875	0	decision	response	2	117	57	foodImage.71	FOODEEG_Images\0713.jpg	NY	Right	Yes	0.564571399998385	0	485825	235
949.919921875	1	decision	trialStart	2	118	58	foodImage.105	FOODEEG_Images\0913.jpg	NY	Right	Yes	1.44097009999678	0	486360	251
950.974609375	2	decision	foodImageDisplay	2	118	58	foodImage.105	FOODEEG_Images\0913.jpg	NY	Right	Yes	1.44097009999678	0	486900	252
953.037109375	1.44097009999678	decision	choicePhaseStart	2	118	58	foodImage.105	FOODEEG_Images\0913.jpg	NY	Right	Yes	1.44097009999678	0	487956	253
954.466796875	0	decision	response	2	118	58	foodImage.105	FOODEEG_Images\0913.jpg	NY	Right	Yes	1.44097009999678	0	488688	235
955.51171875	1	decision	trialStart	2	119	59	foodImage.87	FOODEEG_Images\0873.jpg	NY	Right	Yes	0.606747899961192	0	489223	251
956.56640625	2	decision	foodImageDisplay	2	119	59	foodImage.87	FOODEEG_Images\0873.jpg	NY	Right	Yes	0.606747899961192	0	489763	252
958.62890625	0.606747899961192	decision	choicePhaseStart	2	119	59	foodImage.87	FOODEEG_Images\0873.jpg	NY	Right	Yes	0.606747899961192	0	490819	253
959.2265625	0	decision	response	2	119	59	foodImage.87	FOODEEG_Images\0873.jpg	NY	Right	Yes	0.606747899961192	0	491125	235
960.26953125	1	health	trialStart	2	120	60	foodImage.1	FOODEEG_Images\0004.jpg	NY	Left	No	0.821623800031375	0	491659	251
961.3203125	2	health	foodImageDisplay	2	120	60	foodImage.1	FOODEEG_Images\0004.jpg	NY	Left	No	0.821623800031375	0	492197	252
963.3828125	0.821623800031375	health	choicePhaseStart	2	120	60	foodImage.1	FOODEEG_Images\0004.jpg	NY	Left	No	0.821623800031375	0	493253	253
964.1953125	0	health	response	2	120	60	foodImage.1	FOODEEG_Images\0004.jpg	NY	Left	No	0.821623800031375	0	493669	234
966.23828125	19.740234375	n/a	blockEnd	n/a	n/a	n/a	n/a	n/a	n/a	n/a	n/a	n/a	n/a	494715	254
985.978515625	2	n/a	blockStart	3	n/a	n/a	n/a	n/a	n/a	n/a	n/a	n/a	n/a	504822	250
988.013671875	1	decision	trialStart	3	121	1	foodImage.37	FOODEEG_Images\0359.jpg	NY	Right	Yes	0.606506899988744	0	505864	251
989.056640625	2	decision	foodImageDisplay	3	121	1	foodImage.37	FOODEEG_Images\0359.jpg	NY	Right	Yes	0.606506899988744	0	506398	252
991.125	0.606506899988744	decision	choicePhaseStart	3	121	1	foodImage.37	FOODEEG_Images\0359.jpg	NY	Right	Yes	0.606506899988744	0	507457	253
991.720703125	0	decision	response	3	121	1	foodImage.37	FOODEEG_Images\0359.jpg	NY	Right	Yes	0.606506899988744	0	507762	235
992.765625	1	decision	trialStart	3	122	2	foodImage.91	FOODEEG_Images\0896.jpg	NY	Right	Yes	0.597603400005028	0	508297	251
993.822265625	2	decision	foodImageDisplay	3	122	2	foodImage.91	FOODEEG_Images\0896.jpg	NY	Right	Yes	0.597603400005028	0	508838	252
995.884765625	0.597603400005028	decision	choicePhaseStart	3	122	2	foodImage.91	FOODEEG_Images\0896.jpg	NY	Right	Yes	0.597603400005028	0	509894	253
996.474609375	0	decision	response	3	122	2	foodImage.91	FOODEEG_Images\0896.jpg	NY	Right	Yes	0.597603400005028	0	510196	235
997.517578125	1	decision	trialStart	3	123	3	foodImage.36	FOODEEG_Images\0352.jpg	YN	Left	Yes	1.22417950001545	0	510730	251
998.572265625	2	decision	foodImageDisplay	3	123	3	foodImage.36	FOODEEG_Images\0352.jpg	YN	Left	Yes	1.22417950001545	0	511270	252
1000.634765625	1.22417950001545	decision	choicePhaseStart	3	123	3	foodImage.36	FOODEEG_Images\0352.jpg	YN	Left	Yes	1.22417950001545	0	512326	253
1001.849609375	0	decision	response	3	123	3	foodImage.36	FOODEEG_Images\0352.jpg	YN	Left	Yes	1.22417950001545	0	512948	234
1002.892578125	1	taste	trialStart	3	124	4	foodImage.92	FOODEEG_Images\0900.jpg	NY	Left	No	1.27385609998601	0	513482	251
1003.9296875	2	taste	foodImageDisplay	3	124	4	foodImage.92	FOODEEG_Images\0900.jpg	NY	Left	No	1.27385609998601	0	514013	252
1005.9921875	1.27385609998601	taste	choicePhaseStart	3	124	4	foodImage.92	FOODEEG_Images\0900.jpg	NY	Left	No	1.27385609998601	0	515069	253
1007.2578125	0	taste	response	3	124	4	foodImage.92	FOODEEG_Images\0900.jpg	NY	Left	No	1.27385609998601	0	515717	234
1008.30078125	1	health	trialStart	3	125	5	foodImage.45	FOODEEG_Images\0478.jpg	NY	Right	Yes	0.641972600016743	0	516251	251
1009.34375	2	health	foodImageDisplay	3	125	5	foodImage.45	FOODEEG_Images\0478.jpg	NY	Right	Yes	0.641972600016743	0	516785	252
1011.40625	0.641972600016743	health	choicePhaseStart	3	125	5	foodImage.45	FOODEEG_Images\0478.jpg	NY	Right	Yes	0.641972600016743	0	517841	253
1012.041015625	0	health	response	3	125	5	foodImage.45	FOODEEG_Images\0478.jpg	NY	Right	Yes	0.641972600016743	0	518166	235
1013.083984375	1	health	trialStart	3	126	6	foodImage.56	FOODEEG_Images\0586.jpg	NY	Left	No	0.549818800005596	0	518700	251
1014.125	2	health	foodImageDisplay	3	126	6	foodImage.56	FOODEEG_Images\0586.jpg	NY	Left	No	0.549818800005596	0	519233	252
1016.1875	0.549818800005596	health	choicePhaseStart	3	126	6	foodImage.56	FOODEEG_Images\0586.jpg	NY	Left	No	0.549818800005596	0	520289	253
1016.728515625	0	health	response	3	126	6	foodImage.56	FOODEEG_Images\0586.jpg	NY	Left	No	0.549818800005596	0	520566	234
1017.771484375	1	taste	trialStart	3	127	7	foodImage.20	FOODEEG_Images\0226.jpg	YN	Left	Yes	0.654013400024269	0	521100	251
1018.8125	2	taste	foodImageDisplay	3	127	7	foodImage.20	FOODEEG_Images\0226.jpg	YN	Left	Yes	0.654013400024269	0	521633	252
1020.875	0.654013400024269	taste	choicePhaseStart	3	127	7	foodImage.20	FOODEEG_Images\0226.jpg	YN	Left	Yes	0.654013400024269	0	522689	253
1021.521484375	0	taste	response	3	127	7	foodImage.20	FOODEEG_Images\0226.jpg	YN	Left	Yes	0.654013400024269	0	523020	234
1022.564453125	1	decision	trialStart	3	128	8	foodImage.67	FOODEEG_Images\0679.jpg	NY	Left	No	0.720443600032013	0	523554	251
1023.626953125	2	decision	foodImageDisplay	3	128	8	foodImage.67	FOODEEG_Images\0679.jpg	NY	Left	No	0.720443600032013	0	524098	252
1025.689453125	0.720443600032013	decision	choicePhaseStart	3	128	8	foodImage.67	FOODEEG_Images\0679.jpg	NY	Left	No	0.720443600032013	0	525154	253
1026.400390625	0	decision	response	3	128	8	foodImage.67	FOODEEG_Images\0679.jpg	NY	Left	No	0.720443600032013	0	525518	234
1027.447265625	1	taste	trialStart	3	129	9	foodImage.15	FOODEEG_Images\0189.jpg	YN	Left	Yes	0.665622900007293	0	526054	251
1028.50390625	2	taste	foodImageDisplay	3	129	9	foodImage.15	FOODEEG_Images\0189.jpg	YN	Left	Yes	0.665622900007293	0	526595	252
1030.56640625	0.665622900007293	taste	choicePhaseStart	3	129	9	foodImage.15	FOODEEG_Images\0189.jpg	YN	Left	Yes	0.665622900007293	0	527651	253
1031.224609375	0	taste	response	3	129	9	foodImage.15	FOODEEG_Images\0189.jpg	YN	Left	Yes	0.665622900007293	0	527988	234
1032.26953125	1	health	trialStart	3	130	10	foodImage.54	FOODEEG_Images\0560.jpg	NY	Right	Yes	1.07549459999427	0	528523	251
1033.3515625	2	health	foodImageDisplay	3	130	10	foodImage.54	FOODEEG_Images\0560.jpg	NY	Right	Yes	1.07549459999427	0	529077	252
1035.4140625	1.07549459999427	health	choicePhaseStart	3	130	10	foodImage.54	FOODEEG_Images\0560.jpg	NY	Right	Yes	1.07549459999427	0	530133	253
1036.48046875	0	health	response	3	130	10	foodImage.54	FOODEEG_Images\0560.jpg	NY	Right	Yes	1.07549459999427	0	530679	235
1037.521484375	1	taste	trialStart	3	131	11	foodImage.112	FOODEEG_Images\0920.jpg	NY	Left	No	0.628946800017729	0	531212	251
1038.564453125	2	taste	foodImageDisplay	3	131	11	foodImage.112	FOODEEG_Images\0920.jpg	NY	Left	No	0.628946800017729	0	531746	252
1040.626953125	0.628946800017729	taste	choicePhaseStart	3	131	11	foodImage.112	FOODEEG_Images\0920.jpg	NY	Left	No	0.628946800017729	0	532802	253
1041.248046875	0	taste	response	3	131	11	foodImage.112	FOODEEG_Images\0920.jpg	NY	Left	No	0.628946800017729	0	533120	234
1042.291015625	1	taste	trialStart	3	132	12	foodImage.18	FOODEEG_Images\0202.jpg	NY	Right	Yes	0.814403500000481	0	533654	251
1043.357421875	2	taste	foodImageDisplay	3	132	12	foodImage.18	FOODEEG_Images\0202.jpg	NY	Right	Yes	0.814403500000481	0	534200	252
1045.419921875	0.814403500000481	taste	choicePhaseStart	3	132	12	foodImage.18	FOODEEG_Images\0202.jpg	NY	Right	Yes	0.814403500000481	0	535256	253
1046.224609375	0	taste	response	3	132	12	foodImage.18	FOODEEG_Images\0202.jpg	NY	Right	Yes	0.814403500000481	0	535668	235
1047.265625	1	decision	trialStart	3	133	13	foodImage.101	FOODEEG_Images\0909.jpg	NY	Left	No	0.608369200024754	0	536201	251
1048.3046875	2	decision	foodImageDisplay	3	133	13	foodImage.101	FOODEEG_Images\0909.jpg	NY	Left	No	0.608369200024754	0	536733	252
1050.3671875	0.608369200024754	decision	choicePhaseStart	3	133	13	foodImage.101	FOODEEG_Images\0909.jpg	NY	Left	No	0.608369200024754	0	537789	253
1050.966796875	0	decision	response	3	133	13	foodImage.101	FOODEEG_Images\0909.jpg	NY	Left	No	0.608369200024754	0	538096	234
1052.009765625	1	decision	trialStart	3	134	14	foodImage.99	FOODEEG_Images\0907.jpg	NY	Left	No	0.66543009999441	0	538630	251
1053.048828125	2	decision	foodImageDisplay	3	134	14	foodImage.99	FOODEEG_Images\0907.jpg	NY	Left	No	0.66543009999441	0	539162	252
1055.111328125	0.66543009999441	decision	choicePhaseStart	3	134	14	foodImage.99	FOODEEG_Images\0907.jpg	NY	Left	No	0.66543009999441	0	540218	253
1055.767578125	0	decision	response	3	134	14	foodImage.99	FOODEEG_Images\0907.jpg	NY	Left	No	0.66543009999441	0	540554	234
1056.810546875	1	decision	trialStart	3	135	15	foodImage.13	FOODEEG_Images\0183.jpg	YN	Left	Yes	0.566022599989083	0	541088	251
1057.8515625	2	decision	foodImageDisplay	3	135	15	foodImage.13	FOODEEG_Images\0183.jpg	YN	Left	Yes	0.566022599989083	0	541621	252
1059.912109375	0.566022599989083	decision	choicePhaseStart	3	135	15	foodImage.13	FOODEEG_Images\0183.jpg	YN	Left	Yes	0.566022599989083	0	542676	253
1060.470703125	0	decision	response	3	135	15	foodImage.13	FOODEEG_Images\0183.jpg	YN	Left	Yes	0.566022599989083	0	542962	234
1061.513671875	1	health	trialStart	3	136	16	foodImage.23	FOODEEG_Images\0244.jpg	NY	Right	Yes	1.83284859999549	0	543496	251
1062.560546875	2	health	foodImageDisplay	3	136	16	foodImage.23	FOODEEG_Images\0244.jpg	NY	Right	Yes	1.83284859999549	0	544032	252
1064.623046875	1.83284859999549	health	choicePhaseStart	3	136	16	foodImage.23	FOODEEG_Images\0244.jpg	NY	Right	Yes	1.83284859999549	0	545088	253
1066.447265625	0	health	response	3	136	16	foodImage.23	FOODEEG_Images\0244.jpg	NY	Right	Yes	1.83284859999549	0	546022	235
1067.490234375	1	decision	trialStart	3	137	17	foodImage.107	FOODEEG_Images\0915.jpg	NY	Right	Yes	0.66415839997353	0	546556	251
1068.529296875	2	decision	foodImageDisplay	3	137	17	foodImage.107	FOODEEG_Images\0915.jpg	NY	Right	Yes	0.66415839997353	0	547088	252
1070.591796875	0.66415839997353	decision	choicePhaseStart	3	137	17	foodImage.107	FOODEEG_Images\0915.jpg	NY	Right	Yes	0.66415839997353	0	548144	253
1071.24609375	0	decision	response	3	137	17	foodImage.107	FOODEEG_Images\0915.jpg	NY	Right	Yes	0.66415839997353	0	548479	235
1072.2890625	1	taste	trialStart	3	138	18	foodImage.82	FOODEEG_Images\0805.jpg	NY	Left	No	1.12358590000076	0	549013	251
1073.341796875	2	taste	foodImageDisplay	3	138	18	foodImage.82	FOODEEG_Images\0805.jpg	NY	Left	No	1.12358590000076	0	549552	252
1075.404296875	1.12358590000076	taste	choicePhaseStart	3	138	18	foodImage.82	FOODEEG_Images\0805.jpg	NY	Left	No	1.12358590000076	0	550608	253
1076.51953125	0	taste	response	3	138	18	foodImage.82	FOODEEG_Images\0805.jpg	NY	Left	No	1.12358590000076	0	551179	234
1077.5625	1	decision	trialStart	3	139	19	foodImage.4	FOODEEG_Images\0065.jpg	NY	Right	Yes	0.873666200030129	0	551713	251
1078.638671875	2	decision	foodImageDisplay	3	139	19	foodImage.4	FOODEEG_Images\0065.jpg	NY	Right	Yes	0.873666200030129	0	552264	252
1080.701171875	0.873666200030129	decision	choicePhaseStart	3	139	19	foodImage.4	FOODEEG_Images\0065.jpg	NY	Right	Yes	0.873666200030129	0	553320	253
1081.56640625	0	decision	response	3	139	19	foodImage.4	FOODEEG_Images\0065.jpg	NY	Right	Yes	0.873666200030129	0	553763	235
1082.609375	1	taste	trialStart	3	140	20	foodImage.35	FOODEEG_Images\0350.jpg	NY	Right	Yes	0.686822299961932	0	554297	251
1083.6484375	2	taste	foodImageDisplay	3	140	20	foodImage.35	FOODEEG_Images\0350.jpg	NY	Right	Yes	0.686822299961932	0	554829	252
1085.712890625	0.686822299961932	taste	choicePhaseStart	3	140	20	foodImage.35	FOODEEG_Images\0350.jpg	NY	Right	Yes	0.686822299961932	0	555886	253
1086.390625	0	taste	response	3	140	20	foodImage.35	FOODEEG_Images\0350.jpg	NY	Right	Yes	0.686822299961932	0	556233	235
1087.43359375	1	decision	trialStart	3	141	21	foodImage.114	FOODEEG_Images\0922.jpg	NY	Right	Yes	0.737204100005329	0	556767	251
1088.470703125	2	decision	foodImageDisplay	3	141	21	foodImage.114	FOODEEG_Images\0922.jpg	NY	Right	Yes	0.737204100005329	0	557298	252
1090.533203125	0.737204100005329	decision	choicePhaseStart	3	141	21	foodImage.114	FOODEEG_Images\0922.jpg	NY	Right	Yes	0.737204100005329	0	558354	253
1091.26171875	0	decision	response	3	141	21	foodImage.114	FOODEEG_Images\0922.jpg	NY	Right	Yes	0.737204100005329	0	558727	235
1092.306640625	1	decision	trialStart	3	142	22	foodImage.62	FOODEEG_Images\0644.jpg	YN	Right	No	1.73645909997867	0	559262	251
1093.3671875	2	decision	foodImageDisplay	3	142	22	foodImage.62	FOODEEG_Images\0644.jpg	YN	Right	No	1.73645909997867	0	559805	252
1095.431640625	1.73645909997867	decision	choicePhaseStart	3	142	22	foodImage.62	FOODEEG_Images\0644.jpg	YN	Right	No	1.73645909997867	0	560862	253
1097.158203125	0	decision	response	3	142	22	foodImage.62	FOODEEG_Images\0644.jpg	YN	Right	No	1.73645909997867	0	561746	235
1098.19921875	1	health	trialStart	3	143	23	foodImage.63	FOODEEG_Images\0645.jpg	YN	Left	Yes	2.14332050003577	0	562279	251
1099.2421875	2	health	foodImageDisplay	3	143	23	foodImage.63	FOODEEG_Images\0645.jpg	YN	Left	Yes	2.14332050003577	0	562813	252
1101.3046875	2.14332050003577	health	choicePhaseStart	3	143	23	foodImage.63	FOODEEG_Images\0645.jpg	YN	Left	Yes	2.14332050003577	0	563869	253
1103.439453125	0	health	response	3	143	23	foodImage.63	FOODEEG_Images\0645.jpg	YN	Left	Yes	2.14332050003577	0	564962	234
1104.486328125	1	decision	trialStart	3	144	24	foodImage.11	FOODEEG_Images\0180.jpg	NY	Left	No	0.774373500025831	0	565498	251
1105.529296875	2	decision	foodImageDisplay	3	144	24	foodImage.11	FOODEEG_Images\0180.jpg	NY	Left	No	0.774373500025831	0	566032	252
1107.591796875	0.774373500025831	decision	choicePhaseStart	3	144	24	foodImage.11	FOODEEG_Images\0180.jpg	NY	Left	No	0.774373500025831	0	567088	253
1108.357421875	0	decision	response	3	144	24	foodImage.11	FOODEEG_Images\0180.jpg	NY	Left	No	0.774373500025831	0	567480	234
1109.3984375	1	health	trialStart	3	145	25	foodImage.9	FOODEEG_Images\0138.jpg	NY	Left	No	1.57600860000821	0	568013	251
1110.455078125	2	health	foodImageDisplay	3	145	25	foodImage.9	FOODEEG_Images\0138.jpg	NY	Left	No	1.57600860000821	0	568554	252
1112.517578125	1.57600860000821	health	choicePhaseStart	3	145	25	foodImage.9	FOODEEG_Images\0138.jpg	NY	Left	No	1.57600860000821	0	569610	253
1114.083984375	0	health	response	3	145	25	foodImage.9	FOODEEG_Images\0138.jpg	NY	Left	No	1.57600860000821	0	570412	234
1115.12890625	1	health	trialStart	3	146	26	foodImage.90	FOODEEG_Images\0890.jpg	NY	Right	Yes	0.775127800006885	0	570947	251
1116.18359375	2	health	foodImageDisplay	3	146	26	foodImage.90	FOODEEG_Images\0890.jpg	NY	Right	Yes	0.775127800006885	0	571487	252
1118.24609375	0.775127800006885	health	choicePhaseStart	3	146	26	foodImage.90	FOODEEG_Images\0890.jpg	NY	Right	Yes	0.775127800006885	0	572543	253
1119.013671875	0	health	response	3	146	26	foodImage.90	FOODEEG_Images\0890.jpg	NY	Right	Yes	0.775127800006885	0	572936	235
1120.056640625	1	taste	trialStart	3	147	27	foodImage.93	FOODEEG_Images\0901.jpg	YN	Right	No	0.528258199978154	0	573470	251
1121.09375	2	taste	foodImageDisplay	3	147	27	foodImage.93	FOODEEG_Images\0901.jpg	YN	Right	No	0.528258199978154	0	574001	252
1123.15625	0.528258199978154	taste	choicePhaseStart	3	147	27	foodImage.93	FOODEEG_Images\0901.jpg	YN	Right	No	0.528258199978154	0	575057	253
1123.677734375	0	taste	response	3	147	27	foodImage.93	FOODEEG_Images\0901.jpg	YN	Right	No	0.528258199978154	0	575324	235
1124.720703125	1	taste	trialStart	3	148	28	foodImage.59	FOODEEG_Images\0607.jpg	NY	Right	Yes	0.843086099950597	0	575858	251
1125.765625	2	taste	foodImageDisplay	3	148	28	foodImage.59	FOODEEG_Images\0607.jpg	NY	Right	Yes	0.843086099950597	0	576393	252
1127.828125	0.843086099950597	taste	choicePhaseStart	3	148	28	foodImage.59	FOODEEG_Images\0607.jpg	NY	Right	Yes	0.843086099950597	0	577449	253
1128.66015625	0	taste	response	3	148	28	foodImage.59	FOODEEG_Images\0607.jpg	NY	Right	Yes	0.843086099950597	0	577875	235
1129.703125	1	decision	trialStart	3	149	29	foodImage.76	FOODEEG_Images\0766.jpg	NY	Right	Yes	1.40385439997772	0	578409	251
1130.74609375	2	decision	foodImageDisplay	3	149	29	foodImage.76	FOODEEG_Images\0766.jpg	NY	Right	Yes	1.40385439997772	0	578943	252
1132.80859375	1.40385439997772	decision	choicePhaseStart	3	149	29	foodImage.76	FOODEEG_Images\0766.jpg	NY	Right	Yes	1.40385439997772	0	579999	253
1134.205078125	0	decision	response	3	149	29	foodImage.76	FOODEEG_Images\0766.jpg	NY	Right	Yes	1.40385439997772	0	580714	235
1135.24609375	1	health	trialStart	3	150	30	foodImage.51	FOODEEG_Images\0536.jpg	NY	Left	No	0.922689599974547	0	581247	251
1136.29296875	2	health	foodImageDisplay	3	150	30	foodImage.51	FOODEEG_Images\0536.jpg	NY	Left	No	0.922689599974547	0	581783	252
1138.35546875	0.922689599974547	health	choicePhaseStart	3	150	30	foodImage.51	FOODEEG_Images\0536.jpg	NY	Left	No	0.922689599974547	0	582839	253
1139.267578125	0	health	response	3	150	30	foodImage.51	FOODEEG_Images\0536.jpg	NY	Left	No	0.922689599974547	0	583306	234
1140.310546875	1	taste	trialStart	3	151	31	foodImage.6	FOODEEG_Images\0113.jpg	NY	Right	Yes	0.697257699968759	0	583840	251
1141.35546875	2	taste	foodImageDisplay	3	151	31	foodImage.6	FOODEEG_Images\0113.jpg	NY	Right	Yes	0.697257699968759	0	584375	252
1143.41796875	0.697257699968759	taste	choicePhaseStart	3	151	31	foodImage.6	FOODEEG_Images\0113.jpg	NY	Right	Yes	0.697257699968759	0	585431	253
1144.107421875	0	taste	response	3	151	31	foodImage.6	FOODEEG_Images\0113.jpg	NY	Right	Yes	0.697257699968759	0	585784	235
1145.150390625	1	health	trialStart	3	152	32	foodImage.43	FOODEEG_Images\0445.jpg	YN	Left	Yes	1.20912519999547	0	586318	251
1146.205078125	2	health	foodImageDisplay	3	152	32	foodImage.43	FOODEEG_Images\0445.jpg	YN	Left	Yes	1.20912519999547	0	586858	252
1148.267578125	1.20912519999547	health	choicePhaseStart	3	152	32	foodImage.43	FOODEEG_Images\0445.jpg	YN	Left	Yes	1.20912519999547	0	587914	253
1149.466796875	0	health	response	3	152	32	foodImage.43	FOODEEG_Images\0445.jpg	YN	Left	Yes	1.20912519999547	0	588528	234
1150.51171875	1	health	trialStart	3	153	33	foodImage.69	FOODEEG_Images\0693.jpg	YN	Right	No	1.63606370001798	0	589063	251
1151.5546875	2	health	foodImageDisplay	3	153	33	foodImage.69	FOODEEG_Images\0693.jpg	YN	Right	No	1.63606370001798	0	589597	252
1153.6171875	1.63606370001798	health	choicePhaseStart	3	153	33	foodImage.69	FOODEEG_Images\0693.jpg	YN	Right	No	1.63606370001798	0	590653	253
1155.244140625	0	health	response	3	153	33	foodImage.69	FOODEEG_Images\0693.jpg	YN	Right	No	1.63606370001798	0	591486	235
1156.287109375	1	taste	trialStart	3	154	34	foodImage.118	FOODEEG_Images\0926.jpg	YN	Right	No	0.872616799955722	0	592020	251
1157.32421875	2	taste	foodImageDisplay	3	154	34	foodImage.118	FOODEEG_Images\0926.jpg	YN	Right	No	0.872616799955722	0	592551	252
1159.388671875	0.872616799955722	taste	choicePhaseStart	3	154	34	foodImage.118	FOODEEG_Images\0926.jpg	YN	Right	No	0.872616799955722	0	593608	253
1160.251953125	0	taste	response	3	154	34	foodImage.118	FOODEEG_Images\0926.jpg	YN	Right	No	0.872616799955722	0	594050	235
1161.29296875	1	taste	trialStart	3	155	35	foodImage.117	FOODEEG_Images\0925.jpg	YN	Left	Yes	0.750348299974576	0	594583	251
1162.341796875	2	taste	foodImageDisplay	3	155	35	foodImage.117	FOODEEG_Images\0925.jpg	YN	Left	Yes	0.750348299974576	0	595120	252
1164.40625	0.750348299974576	taste	choicePhaseStart	3	155	35	foodImage.117	FOODEEG_Images\0925.jpg	YN	Left	Yes	0.750348299974576	0	596177	253
1165.146484375	0	taste	response	3	155	35	foodImage.117	FOODEEG_Images\0925.jpg	YN	Left	Yes	0.750348299974576	0	596556	234
1166.189453125	1	health	trialStart	3	156	36	foodImage.41	FOODEEG_Images\0409.jpg	NY	Right	Yes	1.07889010000508	0	597090	251
1167.236328125	2	health	foodImageDisplay	3	156	36	foodImage.41	FOODEEG_Images\0409.jpg	NY	Right	Yes	1.07889010000508	0	597626	252
1169.298828125	1.07889010000508	health	choicePhaseStart	3	156	36	foodImage.41	FOODEEG_Images\0409.jpg	NY	Right	Yes	1.07889010000508	0	598682	253
1170.37109375	0	health	response	3	156	36	foodImage.41	FOODEEG_Images\0409.jpg	NY	Right	Yes	1.07889010000508	0	599231	235
1171.41796875	1	health	trialStart	3	157	37	foodImage.16	FOODEEG_Images\0196.jpg	YN	Left	Yes	0.739289599994663	0	599767	251
1172.47265625	2	health	foodImageDisplay	3	157	37	foodImage.16	FOODEEG_Images\0196.jpg	YN	Left	Yes	0.739289599994663	0	600307	252
1174.53515625	0.739289599994663	health	choicePhaseStart	3	157	37	foodImage.16	FOODEEG_Images\0196.jpg	YN	Left	Yes	0.739289599994663	0	601363	253
1175.267578125	0	health	response	3	157	37	foodImage.16	FOODEEG_Images\0196.jpg	YN	Left	Yes	0.739289599994663	0	601738	234
1176.30859375	1	taste	trialStart	3	158	38	foodImage.67	FOODEEG_Images\0679.jpg	YN	Left	Yes	0.766907100041863	0	602271	251
1177.365234375	2	taste	foodImageDisplay	3	158	38	foodImage.67	FOODEEG_Images\0679.jpg	YN	Left	Yes	0.766907100041863	0	602812	252
1179.427734375	0.766907100041863	taste	choicePhaseStart	3	158	38	foodImage.67	FOODEEG_Images\0679.jpg	YN	Left	Yes	0.766907100041863	0	603868	253
1180.185546875	0	taste	response	3	158	38	foodImage.67	FOODEEG_Images\0679.jpg	YN	Left	Yes	0.766907100041863	0	604256	234
1181.228515625	1	health	trialStart	3	159	39	foodImage.68	FOODEEG_Images\0685.jpg	YN	Left	Yes	1.62286929995753	0	604790	251
1182.302734375	2	health	foodImageDisplay	3	159	39	foodImage.68	FOODEEG_Images\0685.jpg	YN	Left	Yes	1.62286929995753	0	605340	252
1184.365234375	1.62286929995753	health	choicePhaseStart	3	159	39	foodImage.68	FOODEEG_Images\0685.jpg	YN	Left	Yes	1.62286929995753	0	606396	253
1185.978515625	0	health	response	3	159	39	foodImage.68	FOODEEG_Images\0685.jpg	YN	Left	Yes	1.62286929995753	0	607222	234
1187.021484375	1	health	trialStart	3	160	40	foodImage.15	FOODEEG_Images\0189.jpg	NY	Left	No	1.34728360001463	0	607756	251
1188.080078125	2	health	foodImageDisplay	3	160	40	foodImage.15	FOODEEG_Images\0189.jpg	NY	Left	No	1.34728360001463	0	608298	252
1190.142578125	1.34728360001463	health	choicePhaseStart	3	160	40	foodImage.15	FOODEEG_Images\0189.jpg	NY	Left	No	1.34728360001463	0	609354	253
1191.482421875	0	health	response	3	160	40	foodImage.15	FOODEEG_Images\0189.jpg	NY	Left	No	1.34728360001463	0	610040	234
1192.525390625	1	taste	trialStart	3	161	41	foodImage.90	FOODEEG_Images\0890.jpg	NY	Left	No	1.04744080000091	0	610574	251
1193.580078125	2	taste	foodImageDisplay	3	161	41	foodImage.90	FOODEEG_Images\0890.jpg	NY	Left	No	1.04744080000091	0	611114	252
1195.642578125	1.04744080000091	taste	choicePhaseStart	3	161	41	foodImage.90	FOODEEG_Images\0890.jpg	NY	Left	No	1.04744080000091	0	612170	253
1196.681640625	0	taste	response	3	161	41	foodImage.90	FOODEEG_Images\0890.jpg	NY	Left	No	1.04744080000091	0	612702	234
1197.728515625	1	taste	trialStart	3	162	42	foodImage.85	FOODEEG_Images\0841.jpg	NY	Right	Yes	1.27130830002716	0	613238	251
1198.7890625	2	taste	foodImageDisplay	3	162	42	foodImage.85	FOODEEG_Images\0841.jpg	NY	Right	Yes	1.27130830002716	0	613781	252
1200.8515625	1.27130830002716	taste	choicePhaseStart	3	162	42	foodImage.85	FOODEEG_Images\0841.jpg	NY	Right	Yes	1.27130830002716	0	614837	253
1202.11328125	0	taste	response	3	162	42	foodImage.85	FOODEEG_Images\0841.jpg	NY	Right	Yes	1.27130830002716	0	615483	235
1203.162109375	1	health	trialStart	3	163	43	foodImage.76	FOODEEG_Images\0766.jpg	YN	Left	Yes	0.600099599978421	0	616020	251
1204.21875	2	health	foodImageDisplay	3	163	43	foodImage.76	FOODEEG_Images\0766.jpg	YN	Left	Yes	0.600099599978421	0	616561	252
1206.28125	0.600099599978421	health	choicePhaseStart	3	163	43	foodImage.76	FOODEEG_Images\0766.jpg	YN	Left	Yes	0.600099599978421	0	617617	253
1206.873046875	0	health	response	3	163	43	foodImage.76	FOODEEG_Images\0766.jpg	YN	Left	Yes	0.600099599978421	0	617920	234
1207.916015625	1	taste	trialStart	3	164	44	foodImage.99	FOODEEG_Images\0907.jpg	NY	Left	No	1.83418200002052	0	618454	251
1208.955078125	2	taste	foodImageDisplay	3	164	44	foodImage.99	FOODEEG_Images\0907.jpg	NY	Left	No	1.83418200002052	0	618986	252
1211.017578125	1.83418200002052	taste	choicePhaseStart	3	164	44	foodImage.99	FOODEEG_Images\0907.jpg	NY	Left	No	1.83418200002052	0	620042	253
1212.841796875	0	taste	response	3	164	44	foodImage.99	FOODEEG_Images\0907.jpg	NY	Left	No	1.83418200002052	0	620976	234
1213.88671875	1	health	trialStart	3	165	45	foodImage.109	FOODEEG_Images\0917.jpg	YN	Right	No	0.973848499997985	0	621511	251
1214.92578125	2	health	foodImageDisplay	3	165	45	foodImage.109	FOODEEG_Images\0917.jpg	YN	Right	No	0.973848499997985	0	622043	252
1216.98828125	0.973848499997985	health	choicePhaseStart	3	165	45	foodImage.109	FOODEEG_Images\0917.jpg	YN	Right	No	0.973848499997985	0	623099	253
1217.953125	0	health	response	3	165	45	foodImage.109	FOODEEG_Images\0917.jpg	YN	Right	No	0.973848499997985	0	623593	235
1218.99609375	1	taste	trialStart	3	166	46	foodImage.60	FOODEEG_Images\0614.jpg	NY	Right	Yes	0.739295599982142	0	624127	251
1220.0546875	2	taste	foodImageDisplay	3	166	46	foodImage.60	FOODEEG_Images\0614.jpg	NY	Right	Yes	0.739295599982142	0	624669	252
1222.1171875	0.739295599982142	taste	choicePhaseStart	3	166	46	foodImage.60	FOODEEG_Images\0614.jpg	NY	Right	Yes	0.739295599982142	0	625725	253
1222.849609375	0	taste	response	3	166	46	foodImage.60	FOODEEG_Images\0614.jpg	NY	Right	Yes	0.739295599982142	0	626100	235
1223.892578125	1	decision	trialStart	3	167	47	foodImage.27	FOODEEG_Images\0263.jpg	YN	Left	Yes	0.683190100011416	0	626634	251
1224.935546875	2	decision	foodImageDisplay	3	167	47	foodImage.27	FOODEEG_Images\0263.jpg	YN	Left	Yes	0.683190100011416	0	627168	252
1226.998046875	0.683190100011416	decision	choicePhaseStart	3	167	47	foodImage.27	FOODEEG_Images\0263.jpg	YN	Left	Yes	0.683190100011416	0	628224	253
1227.671875	0	decision	response	3	167	47	foodImage.27	FOODEEG_Images\0263.jpg	YN	Left	Yes	0.683190100011416	0	628569	234
1228.71484375	1	decision	trialStart	3	168	48	foodImage.111	FOODEEG_Images\0919.jpg	NY	Left	No	0.688261399976909	0	629103	251
1229.75390625	2	decision	foodImageDisplay	3	168	48	foodImage.111	FOODEEG_Images\0919.jpg	NY	Left	No	0.688261399976909	0	629635	252
1231.81640625	0.688261399976909	decision	choicePhaseStart	3	168	48	foodImage.111	FOODEEG_Images\0919.jpg	NY	Left	No	0.688261399976909	0	630691	253
1232.49609375	0	decision	response	3	168	48	foodImage.111	FOODEEG_Images\0919.jpg	NY	Left	No	0.688261399976909	0	631039	234
1233.5390625	1	taste	trialStart	3	169	49	foodImage.108	FOODEEG_Images\0916.jpg	YN	Right	No	0.833526399976108	0	631573	251
1234.576171875	2	taste	foodImageDisplay	3	169	49	foodImage.108	FOODEEG_Images\0916.jpg	YN	Right	No	0.833526399976108	0	632104	252
1236.638671875	0.833526399976108	taste	choicePhaseStart	3	169	49	foodImage.108	FOODEEG_Images\0916.jpg	YN	Right	No	0.833526399976108	0	633160	253
1237.46484375	0	taste	response	3	169	49	foodImage.108	FOODEEG_Images\0916.jpg	YN	Right	No	0.833526399976108	0	633583	235
1238.5078125	1	health	trialStart	3	170	50	foodImage.117	FOODEEG_Images\0925.jpg	NY	Right	Yes	1.86323009995976	0	634117	251
1239.546875	2	health	foodImageDisplay	3	170	50	foodImage.117	FOODEEG_Images\0925.jpg	NY	Right	Yes	1.86323009995976	0	634649	252
1241.609375	1.86323009995976	health	choicePhaseStart	3	170	50	foodImage.117	FOODEEG_Images\0925.jpg	NY	Right	Yes	1.86323009995976	0	635705	253
1243.46484375	0	health	response	3	170	50	foodImage.117	FOODEEG_Images\0925.jpg	NY	Right	Yes	1.86323009995976	0	636655	235
1244.5078125	1	decision	trialStart	3	171	51	foodImage.30	FOODEEG_Images\0282.jpg	NY	Right	Yes	0.612353499978781	0	637189	251
1245.55078125	2	decision	foodImageDisplay	3	171	51	foodImage.30	FOODEEG_Images\0282.jpg	NY	Right	Yes	0.612353499978781	0	637723	252
1247.61328125	0.612353499978781	decision	choicePhaseStart	3	171	51	foodImage.30	FOODEEG_Images\0282.jpg	NY	Right	Yes	0.612353499978781	0	638779	253
1248.21484375	0	decision	response	3	171	51	foodImage.30	FOODEEG_Images\0282.jpg	NY	Right	Yes	0.612353499978781	0	639087	235
1249.259765625	1	taste	trialStart	3	172	52	foodImage.13	FOODEEG_Images\0183.jpg	YN	Right	No	1.93266219994985	0	639622	251
1250.30078125	2	taste	foodImageDisplay	3	172	52	foodImage.13	FOODEEG_Images\0183.jpg	YN	Right	No	1.93266219994985	0	640155	252
1252.36328125	1.93266219994985	taste	choicePhaseStart	3	172	52	foodImage.13	FOODEEG_Images\0183.jpg	YN	Right	No	1.93266219994985	0	641211	253
1254.287109375	0	taste	response	3	172	52	foodImage.13	FOODEEG_Images\0183.jpg	YN	Right	No	1.93266219994985	0	642196	235
1255.330078125	1	decision	trialStart	3	173	53	foodImage.6	FOODEEG_Images\0113.jpg	YN	Left	Yes	0.659279000014067	0	642730	251
1256.37109375	2	decision	foodImageDisplay	3	173	53	foodImage.6	FOODEEG_Images\0113.jpg	YN	Left	Yes	0.659279000014067	0	643263	252
1258.4375	0.659279000014067	decision	choicePhaseStart	3	173	53	foodImage.6	FOODEEG_Images\0113.jpg	YN	Left	Yes	0.659279000014067	0	644321	253
1259.087890625	0	decision	response	3	173	53	foodImage.6	FOODEEG_Images\0113.jpg	YN	Left	Yes	0.659279000014067	0	644654	234
1260.1328125	1	decision	trialStart	3	174	54	foodImage.117	FOODEEG_Images\0925.jpg	NY	Left	No	0.789203000022098	0	645189	251
1261.171875	2	decision	foodImageDisplay	3	174	54	foodImage.117	FOODEEG_Images\0925.jpg	NY	Left	No	0.789203000022098	0	645721	252
1263.234375	0.789203000022098	decision	choicePhaseStart	3	174	54	foodImage.117	FOODEEG_Images\0925.jpg	NY	Left	No	0.789203000022098	0	646777	253
1264.015625	0	decision	response	3	174	54	foodImage.117	FOODEEG_Images\0925.jpg	NY	Left	No	0.789203000022098	0	647177	234
1265.056640625	1	taste	trialStart	3	175	55	foodImage.104	FOODEEG_Images\0912.jpg	YN	Left	Yes	1.18458180001471	0	647710	251
1266.095703125	2	taste	foodImageDisplay	3	175	55	foodImage.104	FOODEEG_Images\0912.jpg	YN	Left	Yes	1.18458180001471	0	648242	252
1268.158203125	1.18458180001471	taste	choicePhaseStart	3	175	55	foodImage.104	FOODEEG_Images\0912.jpg	YN	Left	Yes	1.18458180001471	0	649298	253
1269.3359375	0	taste	response	3	175	55	foodImage.104	FOODEEG_Images\0912.jpg	YN	Left	Yes	1.18458180001471	0	649901	234
1270.37890625	1	health	trialStart	3	176	56	foodImage.106	FOODEEG_Images\0914.jpg	YN	Right	No	0.784585500019602	0	650435	251
1271.416015625	2	health	foodImageDisplay	3	176	56	foodImage.106	FOODEEG_Images\0914.jpg	YN	Right	No	0.784585500019602	0	650966	252
1273.478515625	0.784585500019602	health	choicePhaseStart	3	176	56	foodImage.106	FOODEEG_Images\0914.jpg	YN	Right	No	0.784585500019602	0	652022	253
1274.25390625	0	health	response	3	176	56	foodImage.106	FOODEEG_Images\0914.jpg	YN	Right	No	0.784585500019602	0	652419	235
1275.298828125	1	taste	trialStart	3	177	57	foodImage.83	FOODEEG_Images\0827.jpg	NY	Right	Yes	2.08609230001457	0	652954	251
1276.35546875	2	taste	foodImageDisplay	3	177	57	foodImage.83	FOODEEG_Images\0827.jpg	NY	Right	Yes	2.08609230001457	0	653495	252
1278.41796875	2.08609230001457	taste	choicePhaseStart	3	177	57	foodImage.83	FOODEEG_Images\0827.jpg	NY	Right	Yes	2.08609230001457	0	654551	253
1280.494140625	0	taste	response	3	177	57	foodImage.83	FOODEEG_Images\0827.jpg	NY	Right	Yes	2.08609230001457	0	655614	235
1281.537109375	1	decision	trialStart	3	178	58	foodImage.60	FOODEEG_Images\0614.jpg	NY	Right	Yes	0.737163099984173	0	656148	251
1282.591796875	2	decision	foodImageDisplay	3	178	58	foodImage.60	FOODEEG_Images\0614.jpg	NY	Right	Yes	0.737163099984173	0	656688	252
1284.654296875	0.737163099984173	decision	choicePhaseStart	3	178	58	foodImage.60	FOODEEG_Images\0614.jpg	NY	Right	Yes	0.737163099984173	0	657744	253
1285.3828125	0	decision	response	3	178	58	foodImage.60	FOODEEG_Images\0614.jpg	NY	Right	Yes	0.737163099984173	0	658117	235
1286.42578125	1	decision	trialStart	3	179	59	foodImage.52	FOODEEG_Images\0539.jpg	NY	Right	Yes	0.637810699990951	0	658651	251
1287.484375	2	decision	foodImageDisplay	3	179	59	foodImage.52	FOODEEG_Images\0539.jpg	NY	Right	Yes	0.637810699990951	0	659193	252
1289.546875	0.637810699990951	decision	choicePhaseStart	3	179	59	foodImage.52	FOODEEG_Images\0539.jpg	NY	Right	Yes	0.637810699990951	0	660249	253
1290.173828125	0	decision	response	3	179	59	foodImage.52	FOODEEG_Images\0539.jpg	NY	Right	Yes	0.637810699990951	0	660570	235
1291.216796875	1	taste	trialStart	3	180	60	foodImage.27	FOODEEG_Images\0263.jpg	NY	Right	Yes	1.07774789998075	0	661104	251
1292.259765625	2	taste	foodImageDisplay	3	180	60	foodImage.27	FOODEEG_Images\0263.jpg	NY	Right	Yes	1.07774789998075	0	661638	252
1294.322265625	1.07774789998075	taste	choicePhaseStart	3	180	60	foodImage.27	FOODEEG_Images\0263.jpg	NY	Right	Yes	1.07774789998075	0	662694	253
1295.390625	0	taste	response	3	180	60	foodImage.27	FOODEEG_Images\0263.jpg	NY	Right	Yes	1.07774789998075	0	663241	235
1297.43359375	23.833984375	n/a	blockEnd	n/a	n/a	n/a	n/a	n/a	n/a	n/a	n/a	n/a	n/a	664287	254
1321.267578125	2	n/a	blockStart	4	n/a	n/a	n/a	n/a	n/a	n/a	n/a	n/a	n/a	676490	250
1323.30078125	1	taste	trialStart	4	181	1	foodImage.33	FOODEEG_Images\0329.jpg	YN	Left	Yes	0.670163099945057	0	677531	251
1324.34375	2	taste	foodImageDisplay	4	181	1	foodImage.33	FOODEEG_Images\0329.jpg	YN	Left	Yes	0.670163099945057	0	678065	252
1326.408203125	0.670163099945057	taste	choicePhaseStart	4	181	1	foodImage.33	FOODEEG_Images\0329.jpg	YN	Left	Yes	0.670163099945057	0	679122	253
1327.068359375	0	taste	response	4	181	1	foodImage.33	FOODEEG_Images\0329.jpg	YN	Left	Yes	0.670163099945057	0	679460	234
1328.111328125	1	health	trialStart	4	182	2	foodImage.93	FOODEEG_Images\0901.jpg	NY	Left	No	0.673476599971764	0	679994	251
1329.150390625	2	health	foodImageDisplay	4	182	2	foodImage.93	FOODEEG_Images\0901.jpg	NY	Left	No	0.673476599971764	0	680526	252
1331.212890625	0.673476599971764	health	choicePhaseStart	4	182	2	foodImage.93	FOODEEG_Images\0901.jpg	NY	Left	No	0.673476599971764	0	681582	253
1331.876953125	0	health	response	4	182	2	foodImage.93	FOODEEG_Images\0901.jpg	NY	Left	No	0.673476599971764	0	681922	234
1332.916015625	1	decision	trialStart	4	183	3	foodImage.84	FOODEEG_Images\0830.jpg	NY	Right	Yes	0.654885199968703	0	682454	251
1333.9765625	2	decision	foodImageDisplay	4	183	3	foodImage.84	FOODEEG_Images\0830.jpg	NY	Right	Yes	0.654885199968703	0	682997	252
1336.0390625	0.654885199968703	decision	choicePhaseStart	4	183	3	foodImage.84	FOODEEG_Images\0830.jpg	NY	Right	Yes	0.654885199968703	0	684053	253
1336.68359375	0	decision	response	4	183	3	foodImage.84	FOODEEG_Images\0830.jpg	NY	Right	Yes	0.654885199968703	0	684383	235
1337.724609375	1	health	trialStart	4	184	4	foodImage.13	FOODEEG_Images\0183.jpg	NY	Right	Yes	1.15012569999089	0	684916	251
1338.77734375	2	health	foodImageDisplay	4	184	4	foodImage.13	FOODEEG_Images\0183.jpg	NY	Right	Yes	1.15012569999089	0	685455	252
1340.83984375	1.15012569999089	health	choicePhaseStart	4	184	4	foodImage.13	FOODEEG_Images\0183.jpg	NY	Right	Yes	1.15012569999089	0	686511	253
1341.98046875	0	health	response	4	184	4	foodImage.13	FOODEEG_Images\0183.jpg	NY	Right	Yes	1.15012569999089	0	687095	235
1343.021484375	1	decision	trialStart	4	185	5	foodImage.90	FOODEEG_Images\0890.jpg	NY	Right	Yes	0.865367299993522	0	687628	251
1344.091796875	2	decision	foodImageDisplay	4	185	5	foodImage.90	FOODEEG_Images\0890.jpg	NY	Right	Yes	0.865367299993522	0	688176	252
1346.15625	0.865367299993522	decision	choicePhaseStart	4	185	5	foodImage.90	FOODEEG_Images\0890.jpg	NY	Right	Yes	0.865367299993522	0	689233	253
1347.01171875	0	decision	response	4	185	5	foodImage.90	FOODEEG_Images\0890.jpg	NY	Right	Yes	0.865367299993522	0	689671	235
1348.0546875	1	taste	trialStart	4	186	6	foodImage.71	FOODEEG_Images\0713.jpg	YN	Left	Yes	0.73341819999041	0	690205	251
1349.095703125	2	taste	foodImageDisplay	4	186	6	foodImage.71	FOODEEG_Images\0713.jpg	YN	Left	Yes	0.73341819999041	0	690738	252
1351.158203125	0.73341819999041	taste	choicePhaseStart	4	186	6	foodImage.71	FOODEEG_Images\0713.jpg	YN	Left	Yes	0.73341819999041	0	691794	253
1351.8828125	0	taste	response	4	186	6	foodImage.71	FOODEEG_Images\0713.jpg	YN	Left	Yes	0.73341819999041	0	692165	234
1352.9296875	1	health	trialStart	4	187	7	foodImage.50	FOODEEG_Images\0529.jpg	YN	Left	Yes	0.881951300019864	0	692701	251
1353.984375	2	health	foodImageDisplay	4	187	7	foodImage.50	FOODEEG_Images\0529.jpg	YN	Left	Yes	0.881951300019864	0	693241	252
1356.046875	0.881951300019864	health	choicePhaseStart	4	187	7	foodImage.50	FOODEEG_Images\0529.jpg	YN	Left	Yes	0.881951300019864	0	694297	253
1356.923828125	0	health	response	4	187	7	foodImage.50	FOODEEG_Images\0529.jpg	YN	Left	Yes	0.881951300019864	0	694746	234
1357.966796875	1	taste	trialStart	4	188	8	foodImage.10	FOODEEG_Images\0145.jpg	NY	Right	Yes	0.661448099999689	0	695280	251
1359.041015625	2	taste	foodImageDisplay	4	188	8	foodImage.10	FOODEEG_Images\0145.jpg	NY	Right	Yes	0.661448099999689	0	695830	252
1361.103515625	0.661448099999689	taste	choicePhaseStart	4	188	8	foodImage.10	FOODEEG_Images\0145.jpg	NY	Right	Yes	0.661448099999689	0	696886	253
1361.755859375	0	taste	response	4	188	8	foodImage.10	FOODEEG_Images\0145.jpg	NY	Right	Yes	0.661448099999689	0	697220	235
1362.798828125	1	taste	trialStart	4	189	9	foodImage.120	FOODEEG_Images\0928.jpg	NY	Left	No	0.841850299970247	0	697754	251
1363.8359375	2	taste	foodImageDisplay	4	189	9	foodImage.120	FOODEEG_Images\0928.jpg	NY	Left	No	0.841850299970247	0	698285	252
1365.8984375	0.841850299970247	taste	choicePhaseStart	4	189	9	foodImage.120	FOODEEG_Images\0928.jpg	NY	Left	No	0.841850299970247	0	699341	253
1366.73046875	0	taste	response	4	189	9	foodImage.120	FOODEEG_Images\0928.jpg	NY	Left	No	0.841850299970247	0	699767	234
1367.779296875	1	taste	trialStart	4	190	10	foodImage.25	FOODEEG_Images\0261.jpg	NY	Left	No	1.16778550000163	0	700304	251
1368.8203125	2	taste	foodImageDisplay	4	190	10	foodImage.25	FOODEEG_Images\0261.jpg	NY	Left	No	1.16778550000163	0	700837	252
1370.8828125	1.16778550000163	taste	choicePhaseStart	4	190	10	foodImage.25	FOODEEG_Images\0261.jpg	NY	Left	No	1.16778550000163	0	701893	253
1372.04296875	0	taste	response	4	190	10	foodImage.25	FOODEEG_Images\0261.jpg	NY	Left	No	1.16778550000163	0	702487	234
1373.0859375	1	taste	trialStart	4	191	11	foodImage.52	FOODEEG_Images\0539.jpg	YN	Left	Yes	1.45415909995791	0	703021	251
1374.142578125	2	taste	foodImageDisplay	4	191	11	foodImage.52	FOODEEG_Images\0539.jpg	YN	Left	Yes	1.45415909995791	0	703562	252
1376.205078125	1.45415909995791	taste	choicePhaseStart	4	191	11	foodImage.52	FOODEEG_Images\0539.jpg	YN	Left	Yes	1.45415909995791	0	704618	253
1377.650390625	0	taste	response	4	191	11	foodImage.52	FOODEEG_Images\0539.jpg	YN	Left	Yes	1.45415909995791	0	705358	234
1378.697265625	1	health	trialStart	4	192	12	foodImage.77	FOODEEG_Images\0771.jpg	YN	Left	Yes	0.663941100006923	0	705894	251
1379.740234375	2	health	foodImageDisplay	4	192	12	foodImage.77	FOODEEG_Images\0771.jpg	YN	Left	Yes	0.663941100006923	0	706428	252
1381.802734375	0.663941100006923	health	choicePhaseStart	4	192	12	foodImage.77	FOODEEG_Images\0771.jpg	YN	Left	Yes	0.663941100006923	0	707484	253
1382.458984375	0	health	response	4	192	12	foodImage.77	FOODEEG_Images\0771.jpg	YN	Left	Yes	0.663941100006923	0	707820	234
1383.501953125	1	decision	trialStart	4	193	13	foodImage.28	FOODEEG_Images\0273.jpg	YN	Left	Yes	1.00269260001369	0	708354	251
1384.5625	2	decision	foodImageDisplay	4	193	13	foodImage.28	FOODEEG_Images\0273.jpg	YN	Left	Yes	1.00269260001369	0	708897	252
1386.625	1.00269260001369	decision	choicePhaseStart	4	193	13	foodImage.28	FOODEEG_Images\0273.jpg	YN	Left	Yes	1.00269260001369	0	709953	253
1387.619140625	0	decision	response	4	193	13	foodImage.28	FOODEEG_Images\0273.jpg	YN	Left	Yes	1.00269260001369	0	710462	234
1388.66015625	1	decision	trialStart	4	194	14	foodImage.20	FOODEEG_Images\0226.jpg	NY	Right	Yes	1.09481590002542	0	710995	251
1389.701171875	2	decision	foodImageDisplay	4	194	14	foodImage.20	FOODEEG_Images\0226.jpg	NY	Right	Yes	1.09481590002542	0	711528	252
