onset	duration	trial_type	event_type	block	trial_total	trial_in_block	food_image_code	food_image_path	button_position	resp_position	resp_choice	choice_rt	resp_too_slow	sample	trigger
246.52734375	2	n/a	blockStart	1	n/a	n/a	n/a	n/a	n/a	n/a	n/a	n/a	n/a	126223	250
248.568359375	1	health	trialStart	1	1	1	foodImage.99	FOODEEG_Images\0907.jpg	NY	Left	No	0.774169099982828	0	127268	251
249.619140625	2	health	foodImageDisplay	1	1	1	foodImage.99	FOODEEG_Images\0907.jpg	NY	Left	No	0.774169099982828	0	127806	252
251.68359375	0.774169099982828	health	choicePhaseStart	1	1	1	foodImage.99	FOODEEG_Images\0907.jpg	NY	Left	No	0.774169099982828	0	128863	253
252.455078125	0	health	response	1	1	1	foodImage.99	FOODEEG_Images\0907.jpg	NY	Left	No	0.774169099982828	0	129258	234
253.544921875	1	health	trialStart	1	2	2	foodImage.90	FOODEEG_Images\0890.jpg	NY	Right	Yes	1.07666409993544	0	129816	251
254.60546875	2	health	foodImageDisplay	1	2	2	foodImage.90	FOODEEG_Images\0890.jpg	NY	Right	Yes	1.07666409993544	0	130359	252
256.66796875	1.07666409993544	health	choicePhaseStart	1	2	2	foodImage.90	FOODEEG_Images\0890.jpg	NY	Right	Yes	1.07666409993544	0	131415	253
257.736328125	0	health	response	1	2	2	foodImage.90	FOODEEG_Images\0890.jpg	NY	Right	Yes	1.07666409993544	0	131962	235
258.794921875	1	decision	trialStart	1	3	3	foodImage.118	FOODEEG_Images\0926.jpg	NY	Left	No	0.728105999995023	0	132504	251
259.833984375	2	decision	foodImageDisplay	1	3	3	foodImage.118	FOODEEG_Images\0926.jpg	NY	Left	No	0.728105999995023	0	133036	252
261.896484375	0.728105999995023	decision	choicePhaseStart	1	3	3	foodImage.118	FOODEEG_Images\0926.jpg	NY	Left	No	0.728105999995023	0	134092	253
262.615234375	0	decision	response	1	3	3	foodImage.118	FOODEEG_Images\0926.jpg	NY	Left	No	0.728105999995023	0	134460	234
263.66015625	1	decision	trialStart	1	4	4	foodImage.45	FOODEEG_Images\0478.jpg	NY	Right	Yes	0.658713300013915	0	134995	251
264.708984375	2	decision	foodImageDisplay	1	4	4	foodImage.45	FOODEEG_Images\0478.jpg	NY	Right	Yes	0.658713300013915	0	135532	252
266.7734375	0.658713300013915	decision	choicePhaseStart	1	4	4	foodImage.45	FOODEEG_Images\0478.jpg	NY	Right	Yes	0.658713300013915	0	136589	253
267.423828125	0	decision	response	1	4	4	foodImage.45	FOODEEG_Images\0478.jpg	NY	Right	Yes	0.658713300013915	0	136922	235
268.47265625	1	taste	trialStart	1	5	5	foodImage.62	FOODEEG_Images\0644.jpg	NY	Right	Yes	0.96235639997758	0	137459	251
269.533203125	2	taste	foodImageDisplay	1	5	5	foodImage.62	FOODEEG_Images\0644.jpg	NY	Right	Yes	0.96235639997758	0	138002	252
271.599609375	0.96235639997758	taste	choicePhaseStart	1	5	5	foodImage.62	FOODEEG_Images\0644.jpg	NY	Right	Yes	0.96235639997758	0	139060	253
272.55859375	0	taste	response	1	5	5	foodImage.62	FOODEEG_Images\0644.jpg	NY	Right	Yes	0.96235639997758	0	139551	235
273.611328125	1	health	trialStart	1	6	6	foodImage.105	FOODEEG_Images\0913.jpg	NY	Right	Yes	1.00406370009296	0	140090	251
274.650390625	2	health	foodImageDisplay	1	6	6	foodImage.105	FOODEEG_Images\0913.jpg	NY	Right	Yes	1.00406370009296	0	140622	252
276.71484375	1.00406370009296	health	choicePhaseStart	1	6	6	foodImage.105	FOODEEG_Images\0913.jpg	NY	Right	Yes	1.00406370009296	0	141679	253
277.7109375	0	health	response	1	6	6	foodImage.105	FOODEEG_Images\0913.jpg	NY	Right	Yes	1.00406370009296	0	142189	235
278.755859375	1	taste	trialStart	1	7	7	foodImage.96	FOODEEG_Images\0904.jpg	NY	Right	Yes	1.18288730015047	0	142724	251
279.79296875	2	taste	foodImageDisplay	1	7	7	foodImage.96	FOODEEG_Images\0904.jpg	NY	Right	Yes	1.18288730015047	0	143255	252
281.857421875	1.18288730015047	taste	choicePhaseStart	1	7	7	foodImage.96	FOODEEG_Images\0904.jpg	NY	Right	Yes	1.18288730015047	0	144312	253
283.03125	0	taste	response	1	7	7	foodImage.96	FOODEEG_Images\0904.jpg	NY	Right	Yes	1.18288730015047	0	144913	235
284.07421875	1	health	trialStart	1	8	8	foodImage.6	FOODEEG_Images\0113.jpg	NY	Left	No	0.772148299962282	0	145447	251
285.115234375	2	health	foodImageDisplay	1	8	8	foodImage.6	FOODEEG_Images\0113.jpg	NY	Left	No	0.772148299962282	0	145980	252
287.1796875	0.772148299962282	health	choicePhaseStart	1	8	8	foodImage.6	FOODEEG_Images\0113.jpg	NY	Left	No	0.772148299962282	0	147037	253
287.943359375	0	health	response	1	8	8	foodImage.6	FOODEEG_Images\0113.jpg	NY	Left	No	0.772148299962282	0	147428	234
288.986328125	1	decision	trialStart	1	9	9	foodImage.107	FOODEEG_Images\0915.jpg	NY	Right	Yes	1.05398149997927	0	147962	251
290.0234375	2	decision	foodImageDisplay	1	9	9	foodImage.107	FOODEEG_Images\0915.jpg	NY	Right	Yes	1.05398149997927	0	148493	252
292.08984375	1.05398149997927	decision	choicePhaseStart	1	9	9	foodImage.107	FOODEEG_Images\0915.jpg	NY	Right	Yes	1.05398149997927	0	149551	253
293.134765625	0	decision	response	1	9	9	foodImage.107	FOODEEG_Images\0915.jpg	NY	Right	Yes	1.05398149997927	0	150086	235
294.181640625	1	decision	trialStart	1	10	10	foodImage.67	FOODEEG_Images\0679.jpg	YN	Left	Yes	1.08808990009129	0	150622	251
295.23828125	2	decision	foodImageDisplay	1	10	10	foodImage.67	FOODEEG_Images\0679.jpg	YN	Left	Yes	1.08808990009129	0	151163	252
297.302734375	1.08808990009129	decision	choicePhaseStart	1	10	10	foodImage.67	FOODEEG_Images\0679.jpg	YN	Left	Yes	1.08808990009129	0	152220	253
298.3828125	0	decision	response	1	10	10	foodImage.67	FOODEEG_Images\0679.jpg	YN	Left	Yes	1.08808990009129	0	152773	234
299.421875	1	health	trialStart	1	11	11	foodImage.34	FOODEEG_Images\0339.jpg	NY	Left	No	0.789473900105804	0	153305	251
300.48046875	2	health	foodImageDisplay	1	11	11	foodImage.34	FOODEEG_Images\0339.jpg	NY	Left	No	0.789473900105804	0	153847	252
302.544921875	0.789473900105804	health	choicePhaseStart	1	11	11	foodImage.34	FOODEEG_Images\0339.jpg	NY	Left	No	0.789473900105804	0	154904	253
303.326171875	0	health	response	1	11	11	foodImage.34	FOODEEG_Images\0339.jpg	NY	Left	No	0.789473900105804	0	155304	234
304.3671875	1	decision	trialStart	1	12	12	foodImage.109	FOODEEG_Images\0917.jpg	NY	Left	No	0.618674000026658	0	155837	251
305.40625	2	decision	foodImageDisplay	1	12	12	foodImage.109	FOODEEG_Images\0917.jpg	NY	Left	No	0.618674000026658	0	156369	252
307.4765625	0.618674000026658	decision	choicePhaseStart	1	12	12	foodImage.109	FOODEEG_Images\0917.jpg	NY	Left	No	0.618674000026658	0	157429	253
308.0859375	0	decision	response	1	12	12	foodImage.109	FOODEEG_Images\0917.jpg	NY	Left	No	0.618674000026658	0	157741	234
309.130859375	1	decision	trialStart	1	13	13	foodImage.76	FOODEEG_Images\0766.jpg	NY	Right	Yes	0.640214999904856	0	158276	251
310.17578125	2	decision	foodImageDisplay	1	13	13	foodImage.76	FOODEEG_Images\0766.jpg	NY	Right	Yes	0.640214999904856	0	158811	252
312.23828125	0.640214999904856	decision	choicePhaseStart	1	13	13	foodImage.76	FOODEEG_Images\0766.jpg	NY	Right	Yes	0.640214999904856	0	159867	253
312.869140625	0	decision	response	1	13	13	foodImage.76	FOODEEG_Images\0766.jpg	NY	Right	Yes	0.640214999904856	0	160190	235
313.912109375	1	health	trialStart	1	14	14	foodImage.11	FOODEEG_Images\0180.jpg	NY	Left	No	2.53648609993979	0	160724	251
314.953125	2	health	foodImageDisplay	1	14	14	foodImage.11	FOODEEG_Images\0180.jpg	NY	Left	No	2.53648609993979	0	161257	252
317.0234375	2.53648609993979	health	choicePhaseStart	1	14	14	foodImage.11	FOODEEG_Images\0180.jpg	NY	Left	No	2.53648609993979	0	162317	253
319.548828125	0	health	response	1	14	14	foodImage.11	FOODEEG_Images\0180.jpg	NY	Left	No	2.53648609993979	0	163610	234
320.59375	1	taste	trialStart	1	15	15	foodImage.119	FOODEEG_Images\0927.jpg	YN	Right	No	2.11163049982861	0	164145	251
321.6328125	2	taste	foodImageDisplay	1	15	15	foodImage.119	FOODEEG_Images\0927.jpg	YN	Right	No	2.11163049982861	0	164677	252
323.69921875	2.11163049982861	taste	choicePhaseStart	1	15	15	foodImage.119	FOODEEG_Images\0927.jpg	YN	Right	No	2.11163049982861	0	165735	253
325.8046875	0	taste	response	1	15	15	foodImage.119	FOODEEG_Images\0927.jpg	YN	Right	No	2.11163049982861	0	166813	235
326.84765625	1	decision	trialStart	1	16	16	foodImage.77	FOODEEG_Images\0771.jpg	YN	Left	Yes	0.569876200053841	0	167347	251
327.892578125	2	decision	foodImageDisplay	1	16	16	foodImage.77	FOODEEG_Images\0771.jpg	YN	Left	Yes	0.569876200053841	0	167882	252
329.9609375	0.569876200053841	decision	choicePhaseStart	1	16	16	foodImage.77	FOODEEG_Images\0771.jpg	YN	Left	Yes	0.569876200053841	0	168941	253
330.525390625	0	decision	response	1	16	16	foodImage.77	FOODEEG_Images\0771.jpg	YN	Left	Yes	0.569876200053841	0	169230	234
331.56640625	1	decision	trialStart	1	17	17	foodImage.120	FOODEEG_Images\0928.jpg	YN	Right	No	1.01804359978996	0	169763	251
332.603515625	2	decision	foodImageDisplay	1	17	17	foodImage.120	FOODEEG_Images\0928.jpg	YN	Right	No	1.01804359978996	0	170294	252
334.66796875	1.01804359978996	decision	choicePhaseStart	1	17	17	foodImage.120	FOODEEG_Images\0928.jpg	YN	Right	No	1.01804359978996	0	171351	253
335.67578125	0	decision	response	1	17	17	foodImage.120	FOODEEG_Images\0928.jpg	YN	Right	No	1.01804359978996	0	171867	235
336.720703125	1	decision	trialStart	1	18	18	foodImage.24	FOODEEG_Images\0250.jpg	YN	Left	Yes	0.703059299848974	0	172402	251
337.76171875	2	decision	foodImageDisplay	1	18	18	foodImage.24	FOODEEG_Images\0250.jpg	YN	Left	Yes	0.703059299848974	0	172935	252
339.82421875	0.703059299848974	decision	choicePhaseStart	1	18	18	foodImage.24	FOODEEG_Images\0250.jpg	YN	Left	Yes	0.703059299848974	0	173991	253
340.5234375	0	decision	response	1	18	18	foodImage.24	FOODEEG_Images\0250.jpg	YN	Left	Yes	0.703059299848974	0	174349	234
341.5703125	1	taste	trialStart	1	19	19	foodImage.33	FOODEEG_Images\0329.jpg	YN	Left	Yes	0.551911700051278	0	174885	251
342.61328125	2	taste	foodImageDisplay	1	19	19	foodImage.33	FOODEEG_Images\0329.jpg	YN	Left	Yes	0.551911700051278	0	175419	252
344.681640625	0.551911700051278	taste	choicePhaseStart	1	19	19	foodImage.33	FOODEEG_Images\0329.jpg	YN	Left	Yes	0.551911700051278	0	176478	253
345.228515625	0	taste	response	1	19	19	foodImage.33	FOODEEG_Images\0329.jpg	YN	Left	Yes	0.551911700051278	0	176758	234
346.271484375	1	health	trialStart	1	20	20	foodImage.52	FOODEEG_Images\0539.jpg	YN	Left	Yes	0.533392900135368	0	177292	251
347.328125	2	health	foodImageDisplay	1	20	20	foodImage.52	FOODEEG_Images\0539.jpg	YN	Left	Yes	0.533392900135368	0	177833	252
349.390625	0.533392900135368	health	choicePhaseStart	1	20	20	foodImage.52	FOODEEG_Images\0539.jpg	YN	Left	Yes	0.533392900135368	0	178889	253
349.916015625	0	health	response	1	20	20	foodImage.52	FOODEEG_Images\0539.jpg	YN	Left	Yes	0.533392900135368	0	179158	234
350.958984375	1	decision	trialStart	1	21	21	foodImage.35	FOODEEG_Images\0350.jpg	NY	Right	Yes	0.828926000045612	0	179692	251
351.998046875	2	decision	foodImageDisplay	1	21	21	foodImage.35	FOODEEG_Images\0350.jpg	NY	Right	Yes	0.828926000045612	0	180224	252
354.060546875	0.828926000045612	decision	choicePhaseStart	1	21	21	foodImage.35	FOODEEG_Images\0350.jpg	NY	Right	Yes	0.828926000045612	0	181280	253
354.884765625	0	decision	response	1	21	21	foodImage.35	FOODEEG_Images\0350.jpg	NY	Right	Yes	0.828926000045612	0	181702	235
355.927734375	1	taste	trialStart	1	22	22	foodImage.18	FOODEEG_Images\0202.jpg	YN	Left	Yes	0.558521799976006	0	182236	251
356.98828125	2	taste	foodImageDisplay	1	22	22	foodImage.18	FOODEEG_Images\0202.jpg	YN	Left	Yes	0.558521799976006	0	182779	252
359.0546875	0.558521799976006	taste	choicePhaseStart	1	22	22	foodImage.18	FOODEEG_Images\0202.jpg	YN	Left	Yes	0.558521799976006	0	183837	253
359.603515625	0	taste	response	1	22	22	foodImage.18	FOODEEG_Images\0202.jpg	YN	Left	Yes	0.558521799976006	0	184118	234
360.650390625	1	decision	trialStart	1	23	23	foodImage.66	FOODEEG_Images\0676.jpg	YN	Right	No	1.70627019996755	0	184654	251
361.705078125	2	decision	foodImageDisplay	1	23	23	foodImage.66	FOODEEG_Images\0676.jpg	YN	Right	No	1.70627019996755	0	185194	252
363.76953125	1.70627019996755	decision	choicePhaseStart	1	23	23	foodImage.66	FOODEEG_Images\0676.jpg	YN	Right	No	1.70627019996755	0	186251	253
365.466796875	0	decision	response	1	23	23	foodImage.66	FOODEEG_Images\0676.jpg	YN	Right	No	1.70627019996755	0	187120	235
366.51171875	1	health	trialStart	1	24	24	foodImage.83	FOODEEG_Images\0827.jpg	YN	Left	Yes	0.608066299930215	0	187655	251
367.56640625	2	health	foodImageDisplay	1	24	24	foodImage.83	FOODEEG_Images\0827.jpg	YN	Left	Yes	0.608066299930215	0	188195	252
369.62890625	0.608066299930215	health	choicePhaseStart	1	24	24	foodImage.83	FOODEEG_Images\0827.jpg	YN	Left	Yes	0.608066299930215	0	189251	253
370.2265625	0	health	response	1	24	24	foodImage.83	FOODEEG_Images\0827.jpg	YN	Left	Yes	0.608066299930215	0	189557	234
371.26953125	1	health	trialStart	1	25	25	foodImage.35	FOODEEG_Images\0350.jpg	NY	Left	No	1.54256150010042	0	190091	251
372.30859375	2	health	foodImageDisplay	1	25	25	foodImage.35	FOODEEG_Images\0350.jpg	NY	Left	No	1.54256150010042	0	190623	252
374.373046875	1.54256150010042	health	choicePhaseStart	1	25	25	foodImage.35	FOODEEG_Images\0350.jpg	NY	Left	No	1.54256150010042	0	191680	253
375.90625	0	health	response	1	25	25	foodImage.35	FOODEEG_Images\0350.jpg	NY	Left	No	1.54256150010042	0	192465	234
376.955078125	1	taste	trialStart	1	26	26	foodImage.75	FOODEEG_Images\0763.jpg	NY	Right	Yes	0.711316700093448	0	193002	251
378.013671875	2	taste	foodImageDisplay	1	26	26	foodImage.75	FOODEEG_Images\0763.jpg	NY	Right	Yes	0.711316700093448	0	193544	252
380.078125	0.711316700093448	taste	choicePhaseStart	1	26	26	foodImage.75	FOODEEG_Images\0763.jpg	NY	Right	Yes	0.711316700093448	0	194601	253
380.779296875	0	taste	response	1	26	26	foodImage.75	FOODEEG_Images\0763.jpg	NY	Right	Yes	0.711316700093448	0	194960	235
381.8203125	1	health	trialStart	1	27	27	foodImage.40	FOODEEG_Images\0373.jpg	YN	Right	No	0.710503400070593	0	195493	251
382.86328125	2	health	foodImageDisplay	1	27	27	foodImage.40	FOODEEG_Images\0373.jpg	YN	Right	No	0.710503400070593	0	196027	252
384.92578125	0.710503400070593	health	choicePhaseStart	1	27	27	foodImage.40	FOODEEG_Images\0373.jpg	YN	Right	No	0.710503400070593	0	197083	253
385.626953125	0	health	response	1	27	27	foodImage.40	FOODEEG_Images\0373.jpg	YN	Right	No	0.710503400070593	0	197442	235
386.669921875	1	health	trialStart	1	28	28	foodImage.77	FOODEEG_Images\0771.jpg	YN	Left	Yes	0.643296699970961	0	197976	251
387.71484375	2	health	foodImageDisplay	1	28	28	foodImage.77	FOODEEG_Images\0771.jpg	YN	Left	Yes	0.643296699970961	0	198511	252
389.77734375	0.643296699970961	health	choicePhaseStart	1	28	28	foodImage.77	FOODEEG_Images\0771.jpg	YN	Left	Yes	0.643296699970961	0	199567	253
390.41015625	0	health	response	1	28	28	foodImage.77	FOODEEG_Images\0771.jpg	YN	Left	Yes	0.643296699970961	0	199891	234
391.453125	1	taste	trialStart	1	29	29	foodImage.44	FOODEEG_Images\0459.jpg	YN	Left	Yes	0.705956300022081	0	200425	251
392.498046875	2	taste	foodImageDisplay	1	29	29	foodImage.44	FOODEEG_Images\0459.jpg	YN	Left	Yes	0.705956300022081	0	200960	252
394.560546875	0.705956300022081	taste	choicePhaseStart	1	29	29	foodImage.44	FOODEEG_Images\0459.jpg	YN	Left	Yes	0.705956300022081	0	202016	253
395.2578125	0	taste	response	1	29	29	foodImage.44	FOODEEG_Images\0459.jpg	YN	Left	Yes	0.705956300022081	0	202373	234
396.30078125	1	decision	trialStart	1	30	30	foodImage.60	FOODEEG_Images\0614.jpg	NY	Right	Yes	0.639594499953091	0	202907	251
397.361328125	2	decision	foodImageDisplay	1	30	30	foodImage.60	FOODEEG_Images\0614.jpg	NY	Right	Yes	0.639594499953091	0	203450	252
399.42578125	0.639594499953091	decision	choicePhaseStart	1	30	30	foodImage.60	FOODEEG_Images\0614.jpg	NY	Right	Yes	0.639594499953091	0	204507	253
400.05859375	0	decision	response	1	30	30	foodImage.60	FOODEEG_Images\0614.jpg	NY	Right	Yes	0.639594499953091	0	204831	235
401.10546875	1	taste	trialStart	1	31	31	foodImage.107	FOODEEG_Images\0915.jpg	NY	Left	No	1.32573199993931	0	205367	251
402.142578125	2	taste	foodImageDisplay	1	31	31	foodImage.107	FOODEEG_Images\0915.jpg	NY	Left	No	1.32573199993931	0	205898	252
404.205078125	1.32573199993931	taste	choicePhaseStart	1	31	31	foodImage.107	FOODEEG_Images\0915.jpg	NY	Left	No	1.32573199993931	0	206954	253
405.521484375	0	taste	response	1	31	31	foodImage.107	FOODEEG_Images\0915.jpg	NY	Left	No	1.32573199993931	0	207628	234
406.564453125	1	decision	trialStart	1	32	32	foodImage.84	FOODEEG_Images\0830.jpg	YN	Left	Yes	0.684934200020507	0	208162	251
407.62109375	2	decision	foodImageDisplay	1	32	32	foodImage.84	FOODEEG_Images\0830.jpg	YN	Left	Yes	0.684934200020507	0	208703	252
409.685546875	0.684934200020507	decision	choicePhaseStart	1	32	32	foodImage.84	FOODEEG_Images\0830.jpg	YN	Left	Yes	0.684934200020507	0	209760	253
410.361328125	0	decision	response	1	32	32	foodImage.84	FOODEEG_Images\0830.jpg	YN	Left	Yes	0.684934200020507	0	210106	234
411.404296875	1	taste	trialStart	1	33	33	foodImage.11	FOODEEG_Images\0180.jpg	YN	Left	Yes	0.996914200019091	0	210640	251
412.447265625	2	taste	foodImageDisplay	1	33	33	foodImage.11	FOODEEG_Images\0180.jpg	YN	Left	Yes	0.996914200019091	0	211174	252
414.509765625	0.996914200019091	taste	choicePhaseStart	1	33	33	foodImage.11	FOODEEG_Images\0180.jpg	YN	Left	Yes	0.996914200019091	0	212230	253
415.498046875	0	taste	response	1	33	33	foodImage.11	FOODEEG_Images\0180.jpg	YN	Left	Yes	0.996914200019091	0	212736	234
416.537109375	1	health	trialStart	1	34	34	foodImage.43	FOODEEG_Images\0445.jpg	YN	Left	Yes	0.691830599913374	0	213268	251
417.599609375	2	health	foodImageDisplay	1	34	34	foodImage.43	FOODEEG_Images\0445.jpg	YN	Left	Yes	0.691830599913374	0	213812	252
419.662109375	0.691830599913374	health	choicePhaseStart	1	34	34	foodImage.43	FOODEEG_Images\0445.jpg	YN	Left	Yes	0.691830599913374	0	214868	253
420.345703125	0	health	response	1	34	34	foodImage.43	FOODEEG_Images\0445.jpg	YN	Left	Yes	0.691830599913374	0	215218	234
421.38671875	1	taste	trialStart	1	35	35	foodImage.89	FOODEEG_Images\0881.jpg	YN	Left	Yes	1.37473329994828	0	215751	251
422.4453125	2	taste	foodImageDisplay	1	35	35	foodImage.89	FOODEEG_Images\0881.jpg	YN	Left	Yes	1.37473329994828	0	216293	252
424.5078125	1.37473329994828	taste	choicePhaseStart	1	35	35	foodImage.89	FOODEEG_Images\0881.jpg	YN	Left	Yes	1.37473329994828	0	217349	253
425.873046875	0	taste	response	1	35	35	foodImage.89	FOODEEG_Images\0881.jpg	YN	Left	Yes	1.37473329994828	0	218048	234
426.916015625	1	health	trialStart	1	36	36	foodImage.100	FOODEEG_Images\0908.jpg	YN	Left	Yes	2.3768988000229	0	218582	251
427.955078125	2	health	foodImageDisplay	1	36	36	foodImage.100	FOODEEG_Images\0908.jpg	YN	Left	Yes	2.3768988000229	0	219114	252
430.017578125	2.3768988000229	health	choicePhaseStart	1	36	36	foodImage.100	FOODEEG_Images\0908.jpg	YN	Left	Yes	2.3768988000229	0	220170	253
432.384765625	0	health	response	1	36	36	foodImage.100	FOODEEG_Images\0908.jpg	YN	Left	Yes	2.3768988000229	0	221382	234
433.427734375	1	taste	trialStart	1	37	37	foodImage.69	FOODEEG_Images\0693.jpg	NY	Right	Yes	0.644238099921495	0	221916	251
434.470703125	2	taste	foodImageDisplay	1	37	37	foodImage.69	FOODEEG_Images\0693.jpg	NY	Right	Yes	0.644238099921495	0	222450	252
436.533203125	0.644238099921495	taste	choicePhaseStart	1	37	37	foodImage.69	FOODEEG_Images\0693.jpg	NY	Right	Yes	0.644238099921495	0	223506	253
437.16796875	0	taste	response	1	37	37	foodImage.69	FOODEEG_Images\0693.jpg	NY	Right	Yes	0.644238099921495	0	223831	235
438.208984375	1	decision	trialStart	1	38	38	foodImage.85	FOODEEG_Images\0841.jpg	YN	Left	Yes	0.697011000011116	0	224364	251
439.265625	2	decision	foodImageDisplay	1	38	38	foodImage.85	FOODEEG_Images\0841.jpg	YN	Left	Yes	0.697011000011116	0	224905	252
441.333984375	0.697011000011116	decision	choicePhaseStart	1	38	38	foodImage.85	FOODEEG_Images\0841.jpg	YN	Left	Yes	0.697011000011116	0	225964	253
442.025390625	0	decision	response	1	38	38	foodImage.85	FOODEEG_Images\0841.jpg	YN	Left	Yes	0.697011000011116	0	226318	234
443.06640625	1	decision	trialStart	1	39	39	foodImage.117	FOODEEG_Images\0925.jpg	YN	Left	Yes	0.684423599857837	0	226851	251
444.103515625	2	decision	foodImageDisplay	1	39	39	foodImage.117	FOODEEG_Images\0925.jpg	YN	Left	Yes	0.684423599857837	0	227382	252
446.166015625	0.684423599857837	decision	choicePhaseStart	1	39	39	foodImage.117	FOODEEG_Images\0925.jpg	YN	Left	Yes	0.684423599857837	0	228438	253
446.83984375	0	decision	response	1	39	39	foodImage.117	FOODEEG_Images\0925.jpg	YN	Left	Yes	0.684423599857837	0	228783	234
447.8828125	1	decision	trialStart	1	40	40	foodImage.20	FOODEEG_Images\0226.jpg	YN	Left	Yes	0.929116900078952	0	229317	251
448.927734375	2	decision	foodImageDisplay	1	40	40	foodImage.20	FOODEEG_Images\0226.jpg	YN	Left	Yes	0.929116900078952	0	229852	252
450.9921875	0.929116900078952	decision	choicePhaseStart	1	40	40	foodImage.20	FOODEEG_Images\0226.jpg	YN	Left	Yes	0.929116900078952	0	230909	253
451.912109375	0	decision	response	1	40	40	foodImage.20	FOODEEG_Images\0226.jpg	YN	Left	Yes	0.929116900078952	0	231380	234
452.9609375	1	taste	trialStart	1	41	41	foodImage.10	FOODEEG_Images\0145.jpg	YN	Left	Yes	0.601107100024819	0	231917	251
454.017578125	2	taste	foodImageDisplay	1	41	41	foodImage.10	FOODEEG_Images\0145.jpg	YN	Left	Yes	0.601107100024819	0	232458	252
456.080078125	0.601107100024819	taste	choicePhaseStart	1	41	41	foodImage.10	FOODEEG_Images\0145.jpg	YN	Left	Yes	0.601107100024819	0	233514	253
456.671875	0	taste	response	1	41	41	foodImage.10	FOODEEG_Images\0145.jpg	YN	Left	Yes	0.601107100024819	0	233817	234
457.71484375	1	decision	trialStart	1	42	42	foodImage.110	FOODEEG_Images\0918.jpg	NY	Left	No	0.750835100188851	0	234351	251
458.75390625	2	decision	foodImageDisplay	1	42	42	foodImage.110	FOODEEG_Images\0918.jpg	NY	Left	No	0.750835100188851	0	234883	252
460.818359375	0.750835100188851	decision	choicePhaseStart	1	42	42	foodImage.110	FOODEEG_Images\0918.jpg	NY	Left	No	0.750835100188851	0	235940	253
461.560546875	0	decision	response	1	42	42	foodImage.110	FOODEEG_Images\0918.jpg	NY	Left	No	0.750835100188851	0	236320	234
462.6015625	1	taste	trialStart	1	43	43	foodImage.95	FOODEEG_Images\0903.jpg	YN	Right	No	0.879258000059053	0	236853	251
463.640625	2	taste	foodImageDisplay	1	43	43	foodImage.95	FOODEEG_Images\0903.jpg	YN	Right	No	0.879258000059053	0	237385	252
465.705078125	0.879258000059053	taste	choicePhaseStart	1	43	43	foodImage.95	FOODEEG_Images\0903.jpg	YN	Right	No	0.879258000059053	0	238442	253
466.57421875	0	taste	response	1	43	43	foodImage.95	FOODEEG_Images\0903.jpg	YN	Right	No	0.879258000059053	0	238887	235
467.62109375	1	taste	trialStart	1	44	44	foodImage.46	FOODEEG_Images\0479.jpg	NY	Right	Yes	1.00791230006143	0	239423	251
468.681640625	2	taste	foodImageDisplay	1	44	44	foodImage.46	FOODEEG_Images\0479.jpg	NY	Right	Yes	1.00791230006143	0	239966	252
470.744140625	1.00791230006143	taste	choicePhaseStart	1	44	44	foodImage.46	FOODEEG_Images\0479.jpg	NY	Right	Yes	1.00791230006143	0	241022	253
471.7421875	0	taste	response	1	44	44	foodImage.46	FOODEEG_Images\0479.jpg	NY	Right	Yes	1.00791230006143	0	241533	235
472.787109375	1	health	trialStart	1	45	45	foodImage.88	FOODEEG_Images\0878.jpg	YN	Right	No	0.707988100126386	0	242068	251
473.845703125	2	health	foodImageDisplay	1	45	45	foodImage.88	FOODEEG_Images\0878.jpg	YN	Right	No	0.707988100126386	0	242610	252
475.908203125	0.707988100126386	health	choicePhaseStart	1	45	45	foodImage.88	FOODEEG_Images\0878.jpg	YN	Right	No	0.707988100126386	0	243666	253
476.607421875	0	health	response	1	45	45	foodImage.88	FOODEEG_Images\0878.jpg	YN	Right	No	0.707988100126386	0	244024	235
477.658203125	1	taste	trialStart	1	46	46	foodImage.21	FOODEEG_Images\0234.jpg	NY	Right	Yes	0.732394600054249	0	244562	251
478.716796875	2	taste	foodImageDisplay	1	46	46	foodImage.21	FOODEEG_Images\0234.jpg	NY	Right	Yes	0.732394600054249	0	245104	252
480.779296875	0.732394600054249	taste	choicePhaseStart	1	46	46	foodImage.21	FOODEEG_Images\0234.jpg	NY	Right	Yes	0.732394600054249	0	246160	253
481.50390625	0	taste	response	1	46	46	foodImage.21	FOODEEG_Images\0234.jpg	NY	Right	Yes	0.732394600054249	0	246531	235
482.544921875	1	decision	trialStart	1	47	47	foodImage.51	FOODEEG_Images\0536.jpg	NY	Right	Yes	0.704521900042892	0	247064	251
483.58984375	2	decision	foodImageDisplay	1	47	47	foodImage.51	FOODEEG_Images\0536.jpg	NY	Right	Yes	0.704521900042892	0	247599	252
485.65234375	0.704521900042892	decision	choicePhaseStart	1	47	47	foodImage.51	FOODEEG_Images\0536.jpg	NY	Right	Yes	0.704521900042892	0	248655	253
486.349609375	0	decision	response	1	47	47	foodImage.51	FOODEEG_Images\0536.jpg	NY	Right	Yes	0.704521900042892	0	249012	235
487.390625	1	taste	trialStart	1	48	48	foodImage.61	FOODEEG_Images\0640.jpg	YN	Left	Yes	0.64072519983165	0	249545	251
488.439453125	2	taste	foodImageDisplay	1	48	48	foodImage.61	FOODEEG_Images\0640.jpg	YN	Left	Yes	0.64072519983165	0	250082	252
490.501953125	0.64072519983165	taste	choicePhaseStart	1	48	48	foodImage.61	FOODEEG_Images\0640.jpg	YN	Left	Yes	0.64072519983165	0	251138	253
491.134765625	0	taste	response	1	48	48	foodImage.61	FOODEEG_Images\0640.jpg	YN	Left	Yes	0.64072519983165	0	251462	234
492.177734375	1	taste	trialStart	1	49	49	foodImage.45	FOODEEG_Images\0478.jpg	NY	Right	Yes	0.623738700058311	0	251996	251
493.22265625	2	taste	foodImageDisplay	1	49	49	foodImage.45	FOODEEG_Images\0478.jpg	NY	Right	Yes	0.623738700058311	0	252531	252
495.287109375	0.623738700058311	taste	choicePhaseStart	1	49	49	foodImage.45	FOODEEG_Images\0478.jpg	NY	Right	Yes	0.623738700058311	0	253588	253
495.90234375	0	taste	response	1	49	49	foodImage.45	FOODEEG_Images\0478.jpg	NY	Right	Yes	0.623738700058311	0	253903	235
496.9453125	1	decision	trialStart	1	50	50	foodImage.58	FOODEEG_Images\0605.jpg	NY	Right	Yes	0.62803029990755	0	254437	251
498.00390625	2	decision	foodImageDisplay	1	50	50	foodImage.58	FOODEEG_Images\0605.jpg	NY	Right	Yes	0.62803029990755	0	254979	252
500.068359375	0.62803029990755	decision	choicePhaseStart	1	50	50	foodImage.58	FOODEEG_Images\0605.jpg	NY	Right	Yes	0.62803029990755	0	256036	253
500.685546875	0	decision	response	1	50	50	foodImage.58	FOODEEG_Images\0605.jpg	NY	Right	Yes	0.62803029990755	0	256352	235
501.7265625	1	health	trialStart	1	51	51	foodImage.113	FOODEEG_Images\0921.jpg	NY	Right	Yes	1.12698949989863	0	256885	251
502.765625	2	health	foodImageDisplay	1	51	51	foodImage.113	FOODEEG_Images\0921.jpg	NY	Right	Yes	1.12698949989863	0	257417	252
504.830078125	1.12698949989863	health	choicePhaseStart	1	51	51	foodImage.113	FOODEEG_Images\0921.jpg	NY	Right	Yes	1.12698949989863	0	258474	253
505.94921875	0	health	response	1	51	51	foodImage.113	FOODEEG_Images\0921.jpg	NY	Right	Yes	1.12698949989863	0	259047	235
506.9921875	1	decision	trialStart	1	52	52	foodImage.13	FOODEEG_Images\0183.jpg	NY	Right	Yes	0.891656400170177	0	259581	251
508.03515625	2	decision	foodImageDisplay	1	52	52	foodImage.13	FOODEEG_Images\0183.jpg	NY	Right	Yes	0.891656400170177	0	260115	252
510.099609375	0.891656400170177	decision	choicePhaseStart	1	52	52	foodImage.13	FOODEEG_Images\0183.jpg	NY	Right	Yes	0.891656400170177	0	261172	253
510.982421875	0	decision	response	1	52	52	foodImage.13	FOODEEG_Images\0183.jpg	NY	Right	Yes	0.891656400170177	0	261624	235
512.02734375	1	decision	trialStart	1	53	53	foodImage.103	FOODEEG_Images\0911.jpg	YN	Right	No	0.589786600088701	0	262159	251
513.06640625	2	decision	foodImageDisplay	1	53	53	foodImage.103	FOODEEG_Images\0911.jpg	YN	Right	No	0.589786600088701	0	262691	252
515.12890625	0.589786600088701	decision	choicePhaseStart	1	53	53	foodImage.103	FOODEEG_Images\0911.jpg	YN	Right	No	0.589786600088701	0	263747	253
515.708984375	0	decision	response	1	53	53	foodImage.103	FOODEEG_Images\0911.jpg	YN	Right	No	0.589786600088701	0	264044	235
516.75	1	taste	trialStart	1	54	54	foodImage.71	FOODEEG_Images\0713.jpg	YN	Left	Yes	0.741696800105274	0	264577	251
517.79296875	2	taste	foodImageDisplay	1	54	54	foodImage.71	FOODEEG_Images\0713.jpg	YN	Left	Yes	0.741696800105274	0	265111	252
519.857421875	0.741696800105274	taste	choicePhaseStart	1	54	54	foodImage.71	FOODEEG_Images\0713.jpg	YN	Left	Yes	0.741696800105274	0	266168	253
520.58984375	0	taste	response	1	54	54	foodImage.71	FOODEEG_Images\0713.jpg	YN	Left	Yes	0.741696800105274	0	266543	234
521.62890625	1	health	trialStart	1	55	55	foodImage.104	FOODEEG_Images\0912.jpg	YN	Right	No	0.955491099972278	0	267075	251
522.666015625	2	health	foodImageDisplay	1	55	55	foodImage.104	FOODEEG_Images\0912.jpg	YN	Right	No	0.955491099972278	0	267606	252
524.73046875	0.955491099972278	health	choicePhaseStart	1	55	55	foodImage.104	FOODEEG_Images\0912.jpg	YN	Right	No	0.955491099972278	0	268663	253
525.677734375	0	health	response	1	55	55	foodImage.104	FOODEEG_Images\0912.jpg	YN	Right	No	0.955491099972278	0	269148	235
526.71875	1	taste	trialStart	1	56	56	foodImage.98	FOODEEG_Images\0906.jpg	YN	Right	No	0.768564199795946	0	269681	251
527.7734375	2	taste	foodImageDisplay	1	56	56	foodImage.98	FOODEEG_Images\0906.jpg	YN	Right	No	0.768564199795946	0	270221	252
529.837890625	0.768564199795946	taste	choicePhaseStart	1	56	56	foodImage.98	FOODEEG_Images\0906.jpg	YN	Right	No	0.768564199795946	0	271278	253
530.59765625	0	taste	response	1	56	56	foodImage.98	FOODEEG_Images\0906.jpg	YN	Right	No	0.768564199795946	0	271667	235
531.63671875	1	taste	trialStart	1	57	57	foodImage.16	FOODEEG_Images\0196.jpg	NY	Right	Yes	1.00876560015604	0	272199	251
532.693359375	2	taste	foodImageDisplay	1	57	57	foodImage.16	FOODEEG_Images\0196.jpg	NY	Right	Yes	1.00876560015604	0	272740	252
534.755859375	1.00876560015604	taste	choicePhaseStart	1	57	57	foodImage.16	FOODEEG_Images\0196.jpg	NY	Right	Yes	1.00876560015604	0	273796	253
535.755859375	0	taste	response	1	57	57	foodImage.16	FOODEEG_Images\0196.jpg	NY	Right	Yes	1.00876560015604	0	274308	235
536.802734375	1	decision	trialStart	1	58	58	foodImage.15	FOODEEG_Images\0189.jpg	YN	Left	Yes	0.677246799925342	0	274844	251
537.880859375	2	decision	foodImageDisplay	1	58	58	foodImage.15	FOODEEG_Images\0189.jpg	YN	Left	Yes	0.677246799925342	0	275396	252
539.9453125	0.677246799925342	decision	choicePhaseStart	1	58	58	foodImage.15	FOODEEG_Images\0189.jpg	YN	Left	Yes	0.677246799925342	0	276453	253
540.61328125	0	decision	response	1	58	58	foodImage.15	FOODEEG_Images\0189.jpg	YN	Left	Yes	0.677246799925342	0	276795	234
541.654296875	1	taste	trialStart	1	59	59	foodImage.79	FOODEEG_Images\0794.jpg	NY	Right	Yes	0.661652300041169	0	277328	251
542.697265625	2	taste	foodImageDisplay	1	59	59	foodImage.79	FOODEEG_Images\0794.jpg	NY	Right	Yes	0.661652300041169	0	277862	252
544.759765625	0.661652300041169	taste	choicePhaseStart	1	59	59	foodImage.79	FOODEEG_Images\0794.jpg	NY	Right	Yes	0.661652300041169	0	278918	253
545.412109375	0	taste	response	1	59	59	foodImage.79	FOODEEG_Images\0794.jpg	NY	Right	Yes	0.661652300041169	0	279252	235
546.455078125	1	decision	trialStart	1	60	60	foodImage.61	FOODEEG_Images\0640.jpg	NY	Right	Yes	0.536923700012267	0	279786	251
547.498046875	2	decision	foodImageDisplay	1	60	60	foodImage.61	FOODEEG_Images\0640.jpg	NY	Right	Yes	0.536923700012267	0	280320	252
549.5625	0.536923700012267	decision	choicePhaseStart	1	60	60	foodImage.61	FOODEEG_Images\0640.jpg	NY	Right	Yes	0.536923700012267	0	281377	253
550.091796875	0	decision	response	1	60	60	foodImage.61	FOODEEG_Images\0640.jpg	NY	Right	Yes	0.536923700012267	0	281648	235
552.134765625	8.271484375	n/a	blockEnd	n/a	n/a	n/a	n/a	n/a	n/a	n/a	n/a	n/a	n/a	282694	254
560.40625	2	n/a	blockStart	2	n/a	n/a	n/a	n/a	n/a	n/a	n/a	n/a	n/a	286929	250
562.44140625	1	taste	trialStart	2	61	1	foodImage.105	FOODEEG_Images\0913.jpg	YN	Right	No	1.09383979998529	0	287971	251
563.482421875	2	taste	foodImageDisplay	2	61	1	foodImage.105	FOODEEG_Images\0913.jpg	YN	Right	No	1.09383979998529	0	288504	252
565.544921875	1.09383979998529	taste	choicePhaseStart	2	61	1	foodImage.105	FOODEEG_Images\0913.jpg	YN	Right	No	1.09383979998529	0	289560	253
566.634765625	0	taste	response	2	61	1	foodImage.105	FOODEEG_Images\0913.jpg	YN	Right	No	1.09383979998529	0	290118	235
567.681640625	1	health	trialStart	2	62	2	foodImage.92	FOODEEG_Images\0900.jpg	YN	Right	No	1.62165879993699	0	290654	251
568.720703125	2	health	foodImageDisplay	2	62	2	foodImage.92	FOODEEG_Images\0900.jpg	YN	Right	No	1.62165879993699	0	291186	252
570.783203125	1.62165879993699	health	choicePhaseStart	2	62	2	foodImage.92	FOODEEG_Images\0900.jpg	YN	Right	No	1.62165879993699	0	292242	253
572.39453125	0	health	response	2	62	2	foodImage.92	FOODEEG_Images\0900.jpg	YN	Right	No	1.62165879993699	0	293067	235
573.439453125	1	health	trialStart	2	63	3	foodImage.82	FOODEEG_Images\0805.jpg	YN	Left	Yes	2.52020070003346	0	293602	251
574.498046875	2	health	foodImageDisplay	2	63	3	foodImage.82	FOODEEG_Images\0805.jpg	YN	Left	Yes	2.52020070003346	0	294144	252
576.564453125	2.52020070003346	health	choicePhaseStart	2	63	3	foodImage.82	FOODEEG_Images\0805.jpg	YN	Left	Yes	2.52020070003346	0	295202	253
579.07421875	0	health	response	2	63	3	foodImage.82	FOODEEG_Images\0805.jpg	YN	Left	Yes	2.52020070003346	0	296487	234
580.1171875	1	decision	trialStart	2	64	4	foodImage.54	FOODEEG_Images\0560.jpg	YN	Left	Yes	0.768615100067109	0	297021	251
581.1796875	2	decision	foodImageDisplay	2	64	4	foodImage.54	FOODEEG_Images\0560.jpg	YN	Left	Yes	0.768615100067109	0	297565	252
583.244140625	0.768615100067109	decision	choicePhaseStart	2	64	4	foodImage.54	FOODEEG_Images\0560.jpg	YN	Left	Yes	0.768615100067109	0	298622	253
584.001953125	0	decision	response	2	64	4	foodImage.54	FOODEEG_Images\0560.jpg	YN	Left	Yes	0.768615100067109	0	299010	234
585.04296875	1	decision	trialStart	2	65	5	foodImage.87	FOODEEG_Images\0873.jpg	NY	Right	Yes	0.598878500051796	0	299543	251
586.1015625	2	decision	foodImageDisplay	2	65	5	foodImage.87	FOODEEG_Images\0873.jpg	NY	Right	Yes	0.598878500051796	0	300085	252
588.1640625	0.598878500051796	decision	choicePhaseStart	2	65	5	foodImage.87	FOODEEG_Images\0873.jpg	NY	Right	Yes	0.598878500051796	0	301141	253
588.75390625	0	decision	response	2	65	5	foodImage.87	FOODEEG_Images\0873.jpg	NY	Right	Yes	0.598878500051796	0	301443	235
589.796875	1	taste	trialStart	2	66	6	foodImage.42	FOODEEG_Images\0438.jpg	NY	Left	No	1.39942810009234	0	301977	251
590.884765625	2	taste	foodImageDisplay	2	66	6	foodImage.42	FOODEEG_Images\0438.jpg	NY	Left	No	1.39942810009234	0	302534	252
592.947265625	1.39942810009234	taste	choicePhaseStart	2	66	6	foodImage.42	FOODEEG_Images\0438.jpg	NY	Left	No	1.39942810009234	0	303590	253
594.337890625	0	taste	response	2	66	6	foodImage.42	FOODEEG_Images\0438.jpg	NY	Left	No	1.39942810009234	0	304302	234
595.3828125	1	health	trialStart	2	67	7	foodImage.114	FOODEEG_Images\0922.jpg	NY	Left	No	1.33623869996518	0	304837	251
596.421875	2	health	foodImageDisplay	2	67	7	foodImage.114	FOODEEG_Images\0922.jpg	NY	Left	No	1.33623869996518	0	305369	252
598.484375	1.33623869996518	health	choicePhaseStart	2	67	7	foodImage.114	FOODEEG_Images\0922.jpg	NY	Left	No	1.33623869996518	0	306425	253
599.810546875	0	health	response	2	67	7	foodImage.114	FOODEEG_Images\0922.jpg	NY	Left	No	1.33623869996518	0	307104	234
600.853515625	1	health	trialStart	2	68	8	foodImage.71	FOODEEG_Images\0713.jpg	NY	Left	No	0.753408499993384	0	307638	251
601.896484375	2	health	foodImageDisplay	2	68	8	foodImage.71	FOODEEG_Images\0713.jpg	NY	Left	No	0.753408499993384	0	308172	252
603.9609375	0.753408499993384	health	choicePhaseStart	2	68	8	foodImage.71	FOODEEG_Images\0713.jpg	NY	Left	No	0.753408499993384	0	309229	253
604.70703125	0	health	response	2	68	8	foodImage.71	FOODEEG_Images\0713.jpg	NY	Left	No	0.753408499993384	0	309611	234
605.75	1	health	trialStart	2	69	9	foodImage.107	FOODEEG_Images\0915.jpg	NY	Right	Yes	1.3989687000867	0	310145	251
606.7890625	2	health	foodImageDisplay	2	69	9	foodImage.107	FOODEEG_Images\0915.jpg	NY	Right	Yes	1.3989687000867	0	310677	252
608.8515625	1.3989687000867	health	choicePhaseStart	2	69	9	foodImage.107	FOODEEG_Images\0915.jpg	NY	Right	Yes	1.3989687000867	0	311733	253
610.2421875	0	health	response	2	69	9	foodImage.107	FOODEEG_Images\0915.jpg	NY	Right	Yes	1.3989687000867	0	312445	235
611.287109375	1	decision	trialStart	2	70	10	foodImage.102	FOODEEG_Images\0910.jpg	NY	Left	No	0.550858699949458	0	312980	251
612.326171875	2	decision	foodImageDisplay	2	70	10	foodImage.102	FOODEEG_Images\0910.jpg	NY	Left	No	0.550858699949458	0	313512	252
614.388671875	0.550858699949458	decision	choicePhaseStart	2	70	10	foodImage.102	FOODEEG_Images\0910.jpg	NY	Left	No	0.550858699949458	0	314568	253
614.9296875	0	decision	response	2	70	10	foodImage.102	FOODEEG_Images\0910.jpg	NY	Left	No	0.550858699949458	0	314845	234
615.97265625	1	health	trialStart	2	71	11	foodImage.111	FOODEEG_Images\0919.jpg	YN	Right	No	1.12826630007476	0	315379	251
617.009765625	2	health	foodImageDisplay	2	71	11	foodImage.111	FOODEEG_Images\0919.jpg	YN	Right	No	1.12826630007476	0	315910	252
619.07421875	1.12826630007476	health	choicePhaseStart	2	71	11	foodImage.111	FOODEEG_Images\0919.jpg	YN	Right	No	1.12826630007476	0	316967	253
620.193359375	0	health	response	2	71	11	foodImage.111	FOODEEG_Images\0919.jpg	YN	Right	No	1.12826630007476	0	317540	235
621.232421875	1	health	trialStart	2	72	12	foodImage.117	FOODEEG_Images\0925.jpg	NY	Right	Yes	2.38699419982731	0	318072	251
622.26953125	2	health	foodImageDisplay	2	72	12	foodImage.117	FOODEEG_Images\0925.jpg	NY	Right	Yes	2.38699419982731	0	318603	252
624.33203125	2.38699419982731	health	choicePhaseStart	2	72	12	foodImage.117	FOODEEG_Images\0925.jpg	NY	Right	Yes	2.38699419982731	0	319659	253
626.712890625	0	health	response	2	72	12	foodImage.117	FOODEEG_Images\0925.jpg	NY	Right	Yes	2.38699419982731	0	320878	235
627.759765625	1	health	trialStart	2	73	13	foodImage.103	FOODEEG_Images\0911.jpg	NY	Left	No	1.13251480017789	0	321414	251
628.798828125	2	health	foodImageDisplay	2	73	13	foodImage.103	FOODEEG_Images\0911.jpg	NY	Left	No	1.13251480017789	0	321946	252
630.861328125	1.13251480017789	health	choicePhaseStart	2	73	13	foodImage.103	FOODEEG_Images\0911.jpg	NY	Left	No	1.13251480017789	0	323002	253
631.984375	0	health	response	2	73	13	foodImage.103	FOODEEG_Images\0911.jpg	NY	Left	No	1.13251480017789	0	323577	234
633.02734375	1	decision	trialStart	2	74	14	foodImage.99	FOODEEG_Images\0907.jpg	YN	Right	No	1.54328179988079	0	324111	251
634.06640625	2	decision	foodImageDisplay	2	74	14	foodImage.99	FOODEEG_Images\0907.jpg	YN	Right	No	1.54328179988079	0	324643	252
636.130859375	1.54328179988079	decision	choicePhaseStart	2	74	14	foodImage.99	FOODEEG_Images\0907.jpg	YN	Right	No	1.54328179988079	0	325700	253
637.6640625	0	decision	response	2	74	14	foodImage.99	FOODEEG_Images\0907.jpg	YN	Right	No	1.54328179988079	0	326485	235
638.70703125	1	taste	trialStart	2	75	15	foodImage.114	FOODEEG_Images\0922.jpg	NY	Left	No	0.875164199853316	0	327019	251
639.74609375	2	taste	foodImageDisplay	2	75	15	foodImage.114	FOODEEG_Images\0922.jpg	NY	Left	No	0.875164199853316	0	327551	252
641.814453125	0.875164199853316	taste	choicePhaseStart	2	75	15	foodImage.114	FOODEEG_Images\0922.jpg	NY	Left	No	0.875164199853316	0	328610	253
642.6796875	0	taste	response	2	75	15	foodImage.114	FOODEEG_Images\0922.jpg	NY	Left	No	0.875164199853316	0	329053	234
643.724609375	1	health	trialStart	2	76	16	foodImage.28	FOODEEG_Images\0273.jpg	YN	Left	Yes	0.713454599957913	0	329588	251
644.767578125	2	health	foodImageDisplay	2	76	16	foodImage.28	FOODEEG_Images\0273.jpg	YN	Left	Yes	0.713454599957913	0	330122	252
646.83203125	0.713454599957913	health	choicePhaseStart	2	76	16	foodImage.28	FOODEEG_Images\0273.jpg	YN	Left	Yes	0.713454599957913	0	331179	253
647.537109375	0	health	response	2	76	16	foodImage.28	FOODEEG_Images\0273.jpg	YN	Left	Yes	0.713454599957913	0	331540	234
648.583984375	1	decision	trialStart	2	77	17	foodImage.8	FOODEEG_Images\0136.jpg	YN	Left	Yes	0.729402099968866	0	332076	251
649.625	2	decision	foodImageDisplay	2	77	17	foodImage.8	FOODEEG_Images\0136.jpg	YN	Left	Yes	0.729402099968866	0	332609	252
651.689453125	0.729402099968866	decision	choicePhaseStart	2	77	17	foodImage.8	FOODEEG_Images\0136.jpg	YN	Left	Yes	0.729402099968866	0	333666	253
652.408203125	0	decision	response	2	77	17	foodImage.8	FOODEEG_Images\0136.jpg	YN	Left	Yes	0.729402099968866	0	334034	234
653.44921875	1	decision	trialStart	2	78	18	foodImage.31	FOODEEG_Images\0294.jpg	YN	Left	Yes	0.624530100030825	0	334567	251
654.4921875	2	decision	foodImageDisplay	2	78	18	foodImage.31	FOODEEG_Images\0294.jpg	YN	Left	Yes	0.624530100030825	0	335101	252
656.556640625	0.624530100030825	decision	choicePhaseStart	2	78	18	foodImage.31	FOODEEG_Images\0294.jpg	YN	Left	Yes	0.624530100030825	0	336158	253
657.17578125	0	decision	response	2	78	18	foodImage.31	FOODEEG_Images\0294.jpg	YN	Left	Yes	0.624530100030825	0	336475	234
658.21875	1	taste	trialStart	2	79	19	foodImage.70	FOODEEG_Images\0705.jpg	NY	Right	Yes	0.713043299969286	0	337009	251
659.279296875	2	taste	foodImageDisplay	2	79	19	foodImage.70	FOODEEG_Images\0705.jpg	NY	Right	Yes	0.713043299969286	0	337552	252
661.34375	0.713043299969286	taste	choicePhaseStart	2	79	19	foodImage.70	FOODEEG_Images\0705.jpg	NY	Right	Yes	0.713043299969286	0	338609	253
662.046875	0	taste	response	2	79	19	foodImage.70	FOODEEG_Images\0705.jpg	NY	Right	Yes	0.713043299969286	0	338969	235
663.091796875	1	taste	trialStart	2	80	20	foodImage.77	FOODEEG_Images\0771.jpg	YN	Left	Yes	0.569984099827707	0	339504	251
664.13671875	2	taste	foodImageDisplay	2	80	20	foodImage.77	FOODEEG_Images\0771.jpg	YN	Left	Yes	0.569984099827707	0	340039	252
666.19921875	0.569984099827707	taste	choicePhaseStart	2	80	20	foodImage.77	FOODEEG_Images\0771.jpg	YN	Left	Yes	0.569984099827707	0	341095	253
666.759765625	0	taste	response	2	80	20	foodImage.77	FOODEEG_Images\0771.jpg	YN	Left	Yes	0.569984099827707	0	341382	234
667.802734375	1	decision	trialStart	2	81	21	foodImage.119	FOODEEG_Images\0927.jpg	YN	Right	No	2.00107160001062	0	341916	251
668.83984375	2	decision	foodImageDisplay	2	81	21	foodImage.119	FOODEEG_Images\0927.jpg	YN	Right	No	2.00107160001062	0	342447	252
670.904296875	2.00107160001062	decision	choicePhaseStart	2	81	21	foodImage.119	FOODEEG_Images\0927.jpg	YN	Right	No	2.00107160001062	0	343504	253
672.89453125	0	decision	response	2	81	21	foodImage.119	FOODEEG_Images\0927.jpg	YN	Right	No	2.00107160001062	0	344523	235
673.9375	1	taste	trialStart	2	82	22	foodImage.78	FOODEEG_Images\0787.jpg	NY	Left	No	1.343773300061	0	345057	251
674.982421875	2	taste	foodImageDisplay	2	82	22	foodImage.78	FOODEEG_Images\0787.jpg	NY	Left	No	1.343773300061	0	345592	252
677.048828125	1.343773300061	taste	choicePhaseStart	2	82	22	foodImage.78	FOODEEG_Images\0787.jpg	NY	Left	No	1.343773300061	0	346650	253
678.3828125	0	taste	response	2	82	22	foodImage.78	FOODEEG_Images\0787.jpg	NY	Left	No	1.343773300061	0	347333	234
679.42578125	1	taste	trialStart	2	83	23	foodImage.14	FOODEEG_Images\0188.jpg	NY	Right	Yes	0.66791640012525	0	347867	251
680.484375	2	taste	foodImageDisplay	2	83	23	foodImage.14	FOODEEG_Images\0188.jpg	NY	Right	Yes	0.66791640012525	0	348409	252
682.548828125	0.66791640012525	taste	choicePhaseStart	2	83	23	foodImage.14	FOODEEG_Images\0188.jpg	NY	Right	Yes	0.66791640012525	0	349466	253
683.20703125	0	taste	response	2	83	23	foodImage.14	FOODEEG_Images\0188.jpg	NY	Right	Yes	0.66791640012525	0	349803	235
684.25	1	decision	trialStart	2	84	24	foodImage.46	FOODEEG_Images\0479.jpg	YN	Right	No	0.651255199918523	0	350337	251
685.310546875	2	decision	foodImageDisplay	2	84	24	foodImage.46	FOODEEG_Images\0479.jpg	YN	Right	No	0.651255199918523	0	350880	252
687.373046875	0.651255199918523	decision	choicePhaseStart	2	84	24	foodImage.46	FOODEEG_Images\0479.jpg	YN	Right	No	0.651255199918523	0	351936	253
688.015625	0	decision	response	2	84	24	foodImage.46	FOODEEG_Images\0479.jpg	YN	Right	No	0.651255199918523	0	352265	235
689.056640625	1	health	trialStart	2	85	25	foodImage.106	FOODEEG_Images\0914.jpg	YN	Right	No	0.999922699993476	0	352798	251
690.095703125	2	health	foodImageDisplay	2	85	25	foodImage.106	FOODEEG_Images\0914.jpg	YN	Right	No	0.999922699993476	0	353330	252
692.16015625	0.999922699993476	health	choicePhaseStart	2	85	25	foodImage.106	FOODEEG_Images\0914.jpg	YN	Right	No	0.999922699993476	0	354387	253
693.150390625	0	health	response	2	85	25	foodImage.106	FOODEEG_Images\0914.jpg	YN	Right	No	0.999922699993476	0	354894	235
694.193359375	1	health	trialStart	2	86	26	foodImage.94	FOODEEG_Images\0902.jpg	NY	Left	No	1.45964329992421	0	355428	251
695.244140625	2	health	foodImageDisplay	2	86	26	foodImage.94	FOODEEG_Images\0902.jpg	NY	Left	No	1.45964329992421	0	355966	252
697.30859375	1.45964329992421	health	choicePhaseStart	2	86	26	foodImage.94	FOODEEG_Images\0902.jpg	NY	Left	No	1.45964329992421	0	357023	253
698.7578125	0	health	response	2	86	26	foodImage.94	FOODEEG_Images\0902.jpg	NY	Left	No	1.45964329992421	0	357765	234
699.796875	1	decision	trialStart	2	87	27	foodImage.69	FOODEEG_Images\0693.jpg	NY	Right	Yes	0.697214700048789	0	358297	251
700.83984375	2	decision	foodImageDisplay	2	87	27	foodImage.69	FOODEEG_Images\0693.jpg	NY	Right	Yes	0.697214700048789	0	358831	252
702.91015625	0.697214700048789	decision	choicePhaseStart	2	87	27	foodImage.69	FOODEEG_Images\0693.jpg	NY	Right	Yes	0.697214700048789	0	359891	253
703.59765625	0	decision	response	2	87	27	foodImage.69	FOODEEG_Images\0693.jpg	NY	Right	Yes	0.697214700048789	0	360243	235
704.640625	1	decision	trialStart	2	88	28	foodImage.53	FOODEEG_Images\0547.jpg	YN	Left	Yes	0.723651600070298	0	360777	251
705.701171875	2	decision	foodImageDisplay	2	88	28	foodImage.53	FOODEEG_Images\0547.jpg	YN	Left	Yes	0.723651600070298	0	361320	252
707.76953125	0.723651600070298	decision	choicePhaseStart	2	88	28	foodImage.53	FOODEEG_Images\0547.jpg	YN	Left	Yes	0.723651600070298	0	362379	253
708.486328125	0	decision	response	2	88	28	foodImage.53	FOODEEG_Images\0547.jpg	YN	Left	Yes	0.723651600070298	0	362746	234
709.529296875	1	health	trialStart	2	89	29	foodImage.47	FOODEEG_Images\0488.jpg	YN	Right	No	0.689804899971932	0	363280	251
710.57421875	2	health	foodImageDisplay	2	89	29	foodImage.47	FOODEEG_Images\0488.jpg	YN	Right	No	0.689804899971932	0	363815	252
712.638671875	0.689804899971932	health	choicePhaseStart	2	89	29	foodImage.47	FOODEEG_Images\0488.jpg	YN	Right	No	0.689804899971932	0	364872	253
713.318359375	0	health	response	2	89	29	foodImage.47	FOODEEG_Images\0488.jpg	YN	Right	No	0.689804899971932	0	365220	235
714.361328125	1	health	trialStart	2	90	30	foodImage.65	FOODEEG_Images\0658.jpg	NY	Right	Yes	0.909438899951056	0	365754	251
715.40234375	2	health	foodImageDisplay	2	90	30	foodImage.65	FOODEEG_Images\0658.jpg	NY	Right	Yes	0.909438899951056	0	366287	252
717.46484375	0.909438899951056	health	choicePhaseStart	2	90	30	foodImage.65	FOODEEG_Images\0658.jpg	NY	Right	Yes	0.909438899951056	0	367343	253
718.365234375	0	health	response	2	90	30	foodImage.65	FOODEEG_Images\0658.jpg	NY	Right	Yes	0.909438899951056	0	367804	235
719.41015625	1	decision	trialStart	2	91	31	foodImage.92	FOODEEG_Images\0900.jpg	NY	Left	No	0.63129199994728	0	368339	251
720.447265625	2	decision	foodImageDisplay	2	91	31	foodImage.92	FOODEEG_Images\0900.jpg	NY	Left	No	0.63129199994728	0	368870	252
722.51171875	0.63129199994728	decision	choicePhaseStart	2	91	31	foodImage.92	FOODEEG_Images\0900.jpg	NY	Left	No	0.63129199994728	0	369927	253
723.1328125	0	decision	response	2	91	31	foodImage.92	FOODEEG_Images\0900.jpg	NY	Left	No	0.63129199994728	0	370245	234
724.1796875	1	decision	trialStart	2	92	32	foodImage.25	FOODEEG_Images\0261.jpg	NY	Left	No	0.684339500032365	0	370781	251
725.220703125	2	decision	foodImageDisplay	2	92	32	foodImage.25	FOODEEG_Images\0261.jpg	NY	Left	No	0.684339500032365	0	371314	252
727.2890625	0.684339500032365	decision	choicePhaseStart	2	92	32	foodImage.25	FOODEEG_Images\0261.jpg	NY	Left	No	0.684339500032365	0	372373	253
727.96484375	0	decision	response	2	92	32	foodImage.25	FOODEEG_Images\0261.jpg	NY	Left	No	0.684339500032365	0	372719	234
729.005859375	1	health	trialStart	2	93	33	foodImage.108	FOODEEG_Images\0916.jpg	NY	Left	No	0.720055600162596	0	373252	251
730.044921875	2	health	foodImageDisplay	2	93	33	foodImage.108	FOODEEG_Images\0916.jpg	NY	Left	No	0.720055600162596	0	373784	252
732.109375	0.720055600162596	health	choicePhaseStart	2	93	33	foodImage.108	FOODEEG_Images\0916.jpg	NY	Left	No	0.720055600162596	0	374841	253
732.8203125	0	health	response	2	93	33	foodImage.108	FOODEEG_Images\0916.jpg	NY	Left	No	0.720055600162596	0	375205	234
733.865234375	1	taste	trialStart	2	94	34	foodImage.5	FOODEEG_Images\0107.jpg	NY	Right	Yes	0.807851700112224	0	375740	251
734.921875	2	taste	foodImageDisplay	2	94	34	foodImage.5	FOODEEG_Images\0107.jpg	NY	Right	Yes	0.807851700112224	0	376281	252
736.982421875	0.807851700112224	taste	choicePhaseStart	2	94	34	foodImage.5	FOODEEG_Images\0107.jpg	NY	Right	Yes	0.807851700112224	0	377336	253
737.78125	0	taste	response	2	94	34	foodImage.5	FOODEEG_Images\0107.jpg	NY	Right	Yes	0.807851700112224	0	377745	235
738.830078125	1	health	trialStart	2	95	35	foodImage.17	FOODEEG_Images\0199.jpg	NY	Right	Yes	0.925040100002661	0	378282	251
739.873046875	2	health	foodImageDisplay	2	95	35	foodImage.17	FOODEEG_Images\0199.jpg	NY	Right	Yes	0.925040100002661	0	378816	252
741.9375	0.925040100002661	health	choicePhaseStart	2	95	35	foodImage.17	FOODEEG_Images\0199.jpg	NY	Right	Yes	0.925040100002661	0	379873	253
742.853515625	0	health	response	2	95	35	foodImage.17	FOODEEG_Images\0199.jpg	NY	Right	Yes	0.925040100002661	0	380342	235
743.896484375	1	health	trialStart	2	96	36	foodImage.55	FOODEEG_Images\0567.jpg	YN	Left	Yes	0.640276700025424	0	380876	251
744.9765625	2	health	foodImageDisplay	2	96	36	foodImage.55	FOODEEG_Images\0567.jpg	YN	Left	Yes	0.640276700025424	0	381429	252
747.037109375	0.640276700025424	health	choicePhaseStart	2	96	36	foodImage.55	FOODEEG_Images\0567.jpg	YN	Left	Yes	0.640276700025424	0	382484	253
747.66796875	0	health	response	2	96	36	foodImage.55	FOODEEG_Images\0567.jpg	YN	Left	Yes	0.640276700025424	0	382807	234
748.716796875	1	health	trialStart	2	97	37	foodImage.45	FOODEEG_Images\0478.jpg	YN	Left	Yes	0.601121300132945	0	383344	251
749.763671875	2	health	foodImageDisplay	2	97	37	foodImage.45	FOODEEG_Images\0478.jpg	YN	Left	Yes	0.601121300132945	0	383880	252
751.828125	0.601121300132945	health	choicePhaseStart	2	97	37	foodImage.45	FOODEEG_Images\0478.jpg	YN	Left	Yes	0.601121300132945	0	384937	253
752.419921875	0	health	response	2	97	37	foodImage.45	FOODEEG_Images\0478.jpg	YN	Left	Yes	0.601121300132945	0	385240	234
753.462890625	1	taste	trialStart	2	98	38	foodImage.102	FOODEEG_Images\0910.jpg	YN	Right	No	1.05520859989338	0	385774	251
754.50390625	2	taste	foodImageDisplay	2	98	38	foodImage.102	FOODEEG_Images\0910.jpg	YN	Right	No	1.05520859989338	0	386307	252
756.56640625	1.05520859989338	taste	choicePhaseStart	2	98	38	foodImage.102	FOODEEG_Images\0910.jpg	YN	Right	No	1.05520859989338	0	387363	253
757.611328125	0	taste	response	2	98	38	foodImage.102	FOODEEG_Images\0910.jpg	YN	Right	No	1.05520859989338	0	387898	235
758.66015625	1	health	trialStart	2	99	39	foodImage.22	FOODEEG_Images\0236.jpg	YN	Left	Yes	0.886030300054699	0	388435	251
759.708984375	2	health	foodImageDisplay	2	99	39	foodImage.22	FOODEEG_Images\0236.jpg	YN	Left	Yes	0.886030300054699	0	388972	252
761.775390625	0.886030300054699	health	choicePhaseStart	2	99	39	foodImage.22	FOODEEG_Images\0236.jpg	YN	Left	Yes	0.886030300054699	0	390030	253
762.65234375	0	health	response	2	99	39	foodImage.22	FOODEEG_Images\0236.jpg	YN	Left	Yes	0.886030300054699	0	390479	234
763.6953125	1	decision	trialStart	2	100	40	foodImage.81	FOODEEG_Images\0797.jpg	NY	Right	Yes	1.0125851999037	0	391013	251
764.75390625	2	decision	foodImageDisplay	2	100	40	foodImage.81	FOODEEG_Images\0797.jpg	NY	Right	Yes	1.0125851999037	0	391555	252
766.81640625	1.0125851999037	decision	choicePhaseStart	2	100	40	foodImage.81	FOODEEG_Images\0797.jpg	NY	Right	Yes	1.0125851999037	0	392611	253
767.8203125	0	decision	response	2	100	40	foodImage.81	FOODEEG_Images\0797.jpg	NY	Right	Yes	1.0125851999037	0	393125	235
768.86328125	1	taste	trialStart	2	101	41	foodImage.73	FOODEEG_Images\0717.jpg	NY	Right	Yes	0.465841100085527	0	393659	251
769.921875	2	taste	foodImageDisplay	2	101	41	foodImage.73	FOODEEG_Images\0717.jpg	NY	Right	Yes	0.465841100085527	0	394201	252
771.986328125	0.465841100085527	taste	choicePhaseStart	2	101	41	foodImage.73	FOODEEG_Images\0717.jpg	NY	Right	Yes	0.465841100085527	0	395258	253
772.443359375	0	taste	response	2	101	41	foodImage.73	FOODEEG_Images\0717.jpg	NY	Right	Yes	0.465841100085527	0	395492	235
773.486328125	1	taste	trialStart	2	102	42	foodImage.67	FOODEEG_Images\0679.jpg	NY	Right	Yes	1.14139660005458	0	396026	251
774.546875	2	taste	foodImageDisplay	2	102	42	foodImage.67	FOODEEG_Images\0679.jpg	NY	Right	Yes	1.14139660005458	0	396569	252
776.611328125	1.14139660005458	taste	choicePhaseStart	2	102	42	foodImage.67	FOODEEG_Images\0679.jpg	NY	Right	Yes	1.14139660005458	0	397626	253
777.748046875	0	taste	response	2	102	42	foodImage.67	FOODEEG_Images\0679.jpg	NY	Right	Yes	1.14139660005458	0	398208	235
778.791015625	1	health	trialStart	2	103	43	foodImage.31	FOODEEG_Images\0294.jpg	YN	Right	No	1.30868780007586	0	398742	251
779.83984375	2	health	foodImageDisplay	2	103	43	foodImage.31	FOODEEG_Images\0294.jpg	YN	Right	No	1.30868780007586	0	399279	252
781.904296875	1.30868780007586	health	choicePhaseStart	2	103	43	foodImage.31	FOODEEG_Images\0294.jpg	YN	Right	No	1.30868780007586	0	400336	253
783.203125	0	health	response	2	103	43	foodImage.31	FOODEEG_Images\0294.jpg	YN	Right	No	1.30868780007586	0	401001	235
784.24609375	1	health	trialStart	2	104	44	foodImage.18	FOODEEG_Images\0202.jpg	YN	Left	Yes	0.773005600087345	0	401535	251
785.302734375	2	health	foodImageDisplay	2	104	44	foodImage.18	FOODEEG_Images\0202.jpg	YN	Left	Yes	0.773005600087345	0	402076	252
787.3671875	0.773005600087345	health	choicePhaseStart	2	104	44	foodImage.18	FOODEEG_Images\0202.jpg	YN	Left	Yes	0.773005600087345	0	403133	253
788.130859375	0	health	response	2	104	44	foodImage.18	FOODEEG_Images\0202.jpg	YN	Left	Yes	0.773005600087345	0	403524	234
789.173828125	1	taste	trialStart	2	105	45	foodImage.110	FOODEEG_Images\0918.jpg	YN	Right	No	0.705396699951962	0	404058	251
790.2109375	2	taste	foodImageDisplay	2	105	45	foodImage.110	FOODEEG_Images\0918.jpg	YN	Right	No	0.705396699951962	0	404589	252
792.275390625	0.705396699951962	taste	choicePhaseStart	2	105	45	foodImage.110	FOODEEG_Images\0918.jpg	YN	Right	No	0.705396699951962	0	405646	253
792.970703125	0	taste	response	2	105	45	foodImage.110	FOODEEG_Images\0918.jpg	YN	Right	No	0.705396699951962	0	406002	235
794.013671875	1	health	trialStart	2	106	46	foodImage.78	FOODEEG_Images\0787.jpg	NY	Right	Yes	0.729388300096616	0	406536	251
795.05859375	2	health	foodImageDisplay	2	106	46	foodImage.78	FOODEEG_Images\0787.jpg	NY	Right	Yes	0.729388300096616	0	407071	252
797.12109375	0.729388300096616	health	choicePhaseStart	2	106	46	foodImage.78	FOODEEG_Images\0787.jpg	NY	Right	Yes	0.729388300096616	0	408127	253
797.841796875	0	health	response	2	106	46	foodImage.78	FOODEEG_Images\0787.jpg	NY	Right	Yes	0.729388300096616	0	408496	235
798.884765625	1	taste	trialStart	2	107	47	foodImage.112	FOODEEG_Images\0920.jpg	NY	Left	No	0.845823700074106	0	409030	251
799.92578125	2	taste	foodImageDisplay	2	107	47	foodImage.112	FOODEEG_Images\0920.jpg	NY	Left	No	0.845823700074106	0	409563	252
801.994140625	0.845823700074106	taste	choicePhaseStart	2	107	47	foodImage.112	FOODEEG_Images\0920.jpg	NY	Left	No	0.845823700074106	0	410622	253
802.833984375	0	taste	response	2	107	47	foodImage.112	FOODEEG_Images\0920.jpg	NY	Left	No	0.845823700074106	0	411052	234
803.876953125	1	health	trialStart	2	108	48	foodImage.59	FOODEEG_Images\0607.jpg	YN	Right	No	0.733996500028297	0	411586	251
804.931640625	2	health	foodImageDisplay	2	108	48	foodImage.59	FOODEEG_Images\0607.jpg	YN	Right	No	0.733996500028297	0	412126	252
806.998046875	0.733996500028297	health	choicePhaseStart	2	108	48	foodImage.59	FOODEEG_Images\0607.jpg	YN	Right	No	0.733996500028297	0	413184	253
807.72265625	0	health	response	2	108	48	foodImage.59	FOODEEG_Images\0607.jpg	YN	Right	No	0.733996500028297	0	413555	235
808.763671875	1	decision	trialStart	2	109	49	foodImage.78	FOODEEG_Images\0787.jpg	YN	Left	Yes	0.480644100112841	0	414088	251
809.80859375	2	decision	foodImageDisplay	2	109	49	foodImage.78	FOODEEG_Images\0787.jpg	YN	Left	Yes	0.480644100112841	0	414623	252
811.875	0.480644100112841	decision	choicePhaseStart	2	109	49	foodImage.78	FOODEEG_Images\0787.jpg	YN	Left	Yes	0.480644100112841	0	415681	253
812.345703125	0	decision	response	2	109	49	foodImage.78	FOODEEG_Images\0787.jpg	YN	Left	Yes	0.480644100112841	0	415922	234
813.390625	1	taste	trialStart	2	110	50	foodImage.35	FOODEEG_Images\0350.jpg	YN	Left	Yes	0.64739999989979	0	416457	251
814.4296875	2	taste	foodImageDisplay	2	110	50	foodImage.35	FOODEEG_Images\0350.jpg	YN	Left	Yes	0.64739999989979	0	416989	252
816.4921875	0.64739999989979	taste	choicePhaseStart	2	110	50	foodImage.35	FOODEEG_Images\0350.jpg	YN	Left	Yes	0.64739999989979	0	418045	253
817.12890625	0	taste	response	2	110	50	foodImage.35	FOODEEG_Images\0350.jpg	YN	Left	Yes	0.64739999989979	0	418371	234
818.173828125	1	taste	trialStart	2	111	51	foodImage.68	FOODEEG_Images\0685.jpg	YN	Left	Yes	0.681031000101939	0	418906	251
819.251953125	2	taste	foodImageDisplay	2	111	51	foodImage.68	FOODEEG_Images\0685.jpg	YN	Left	Yes	0.681031000101939	0	419458	252
821.314453125	0.681031000101939	taste	choicePhaseStart	2	111	51	foodImage.68	FOODEEG_Images\0685.jpg	YN	Left	Yes	0.681031000101939	0	420514	253
821.986328125	0	taste	response	2	111	51	foodImage.68	FOODEEG_Images\0685.jpg	YN	Left	Yes	0.681031000101939	0	420858	234
823.029296875	1	health	trialStart	2	112	52	foodImage.116	FOODEEG_Images\0924.jpg	YN	Right	No	1.03080249996856	0	421392	251
824.068359375	2	health	foodImageDisplay	2	112	52	foodImage.116	FOODEEG_Images\0924.jpg	YN	Right	No	1.03080249996856	0	421924	252
826.130859375	1.03080249996856	health	choicePhaseStart	2	112	52	foodImage.116	FOODEEG_Images\0924.jpg	YN	Right	No	1.03080249996856	0	422980	253
827.15234375	0	health	response	2	112	52	foodImage.116	FOODEEG_Images\0924.jpg	YN	Right	No	1.03080249996856	0	423503	235
828.197265625	1	health	trialStart	2	113	53	foodImage.2	FOODEEG_Images\0028.jpg	NY	Left	No	2.7206462000031	0	424038	251
829.240234375	2	health	foodImageDisplay	2	113	53	foodImage.2	FOODEEG_Images\0028.jpg	NY	Left	No	2.7206462000031	0	424572	252
831.3046875	2.7206462000031	health	choicePhaseStart	2	113	53	foodImage.2	FOODEEG_Images\0028.jpg	NY	Left	No	2.7206462000031	0	425629	253
834.017578125	0	health	response	2	113	53	foodImage.2	FOODEEG_Images\0028.jpg	NY	Left	No	2.7206462000031	0	427018	234
835.06640625	1	health	trialStart	2	114	54	foodImage.8	FOODEEG_Images\0136.jpg	NY	Left	No	0.592216599965468	0	427555	251
836.107421875	2	health	foodImageDisplay	2	114	54	foodImage.8	FOODEEG_Images\0136.jpg	NY	Left	No	0.592216599965468	0	428088	252
838.169921875	0.592216599965468	health	choicePhaseStart	2	114	54	foodImage.8	FOODEEG_Images\0136.jpg	NY	Left	No	0.592216599965468	0	429144	253
838.751953125	0	health	response	2	114	54	foodImage.8	FOODEEG_Images\0136.jpg	NY	Left	No	0.592216599965468	0	429442	234
839.794921875	1	taste	trialStart	2	115	55	foodImage.109	FOODEEG_Images\0917.jpg	YN	Right	No	0.852027899818495	0	429976	251
840.83203125	2	taste	foodImageDisplay	2	115	55	foodImage.109	FOODEEG_Images\0917.jpg	YN	Right	No	0.852027899818495	0	430507	252
842.89453125	0.852027899818495	taste	choicePhaseStart	2	115	55	foodImage.109	FOODEEG_Images\0917.jpg	YN	Right	No	0.852027899818495	0	431563	253
843.736328125	0	taste	response	2	115	55	foodImage.109	FOODEEG_Images\0917.jpg	YN	Right	No	0.852027899818495	0	431994	235
844.783203125	1	decision	trialStart	2	116	56	foodImage.56	FOODEEG_Images\0586.jpg	YN	Left	Yes	0.53839229978621	0	432530	251
845.826171875	2	decision	foodImageDisplay	2	116	56	foodImage.56	FOODEEG_Images\0586.jpg	YN	Left	Yes	0.53839229978621	0	433064	252
847.88671875	0.53839229978621	decision	choicePhaseStart	2	116	56	foodImage.56	FOODEEG_Images\0586.jpg	YN	Left	Yes	0.53839229978621	0	434119	253
848.416015625	0	decision	response	2	116	56	foodImage.56	FOODEEG_Images\0586.jpg	YN	Left	Yes	0.53839229978621	0	434390	234
849.4609375	1	taste	trialStart	2	117	57	foodImage.32	FOODEEG_Images\0319.jpg	NY	Right	Yes	0.663032199954614	0	434925	251
850.5234375	2	taste	foodImageDisplay	2	117	57	foodImage.32	FOODEEG_Images\0319.jpg	NY	Right	Yes	0.663032199954614	0	435469	252
852.5859375	0.663032199954614	taste	choicePhaseStart	2	117	57	foodImage.32	FOODEEG_Images\0319.jpg	NY	Right	Yes	0.663032199954614	0	436525	253
853.240234375	0	taste	response	2	117	57	foodImage.32	FOODEEG_Images\0319.jpg	NY	Right	Yes	0.663032199954614	0	436860	235
854.28125	1	health	trialStart	2	118	58	foodImage.1	FOODEEG_Images\0004.jpg	YN	Right	No	0.689406699966639	0	437393	251
855.32421875	2	health	foodImageDisplay	2	118	58	foodImage.1	FOODEEG_Images\0004.jpg	YN	Right	No	0.689406699966639	0	437927	252
857.388671875	0.689406699966639	health	choicePhaseStart	2	118	58	foodImage.1	FOODEEG_Images\0004.jpg	YN	Right	No	0.689406699966639	0	438984	253
858.072265625	0	health	response	2	118	58	foodImage.1	FOODEEG_Images\0004.jpg	YN	Right	No	0.689406699966639	0	439334	235
859.11328125	1	health	trialStart	2	119	59	foodImage.13	FOODEEG_Images\0183.jpg	NY	Right	Yes	0.590893400134519	0	439867	251
860.154296875	2	health	foodImageDisplay	2	119	59	foodImage.13	FOODEEG_Images\0183.jpg	NY	Right	Yes	0.590893400134519	0	440400	252
862.21875	0.590893400134519	health	choicePhaseStart	2	119	59	foodImage.13	FOODEEG_Images\0183.jpg	NY	Right	Yes	0.590893400134519	0	441457	253
862.798828125	0	health	response	2	119	59	foodImage.13	FOODEEG_Images\0183.jpg	NY	Right	Yes	0.590893400134519	0	441754	235
863.84375	1	decision	trialStart	2	120	60	foodImage.36	FOODEEG_Images\0352.jpg	NY	Right	Yes	0.583801000146195	0	442289	251
864.904296875	2	decision	foodImageDisplay	2	120	60	foodImage.36	FOODEEG_Images\0352.jpg	NY	Right	Yes	0.583801000146195	0	442832	252
866.970703125	0.583801000146195	decision	choicePhaseStart	2	120	60	foodImage.36	FOODEEG_Images\0352.jpg	NY	Right	Yes	0.583801000146195	0	443890	253
867.54296875	0	decision	response	2	120	60	foodImage.36	FOODEEG_Images\0352.jpg	NY	Right	Yes	0.583801000146195	0	444183	235
869.5859375	9.5234375	n/a	blockEnd	n/a	n/a	n/a	n/a	n/a	n/a	n/a	n/a	n/a	n/a	445229	254
879.109375	2	n/a	blockStart	3	n/a	n/a	n/a	n/a	n/a	n/a	n/a	n/a	n/a	450105	250
881.14453125	1	decision	trialStart	3	121	1	foodImage.73	FOODEEG_Images\0717.jpg	NY	Right	Yes	0.597691399976611	0	451147	251
882.203125	2	decision	foodImageDisplay	3	121	1	foodImage.73	FOODEEG_Images\0717.jpg	NY	Right	Yes	0.597691399976611	0	451689	252
884.265625	0.597691399976611	decision	choicePhaseStart	3	121	1	foodImage.73	FOODEEG_Images\0717.jpg	NY	Right	Yes	0.597691399976611	0	452745	253
884.85546875	0	decision	response	3	121	1	foodImage.73	FOODEEG_Images\0717.jpg	NY	Right	Yes	0.597691399976611	0	453047	235
885.8984375	1	taste	trialStart	3	122	2	foodImage.117	FOODEEG_Images\0925.jpg	YN	Left	Yes	0.958075599977747	0	453581	251
886.939453125	2	taste	foodImageDisplay	3	122	2	foodImage.117	FOODEEG_Images\0925.jpg	YN	Left	Yes	0.958075599977747	0	454114	252
889.001953125	0.958075599977747	taste	choicePhaseStart	3	122	2	foodImage.117	FOODEEG_Images\0925.jpg	YN	Left	Yes	0.958075599977747	0	455170	253
889.951171875	0	taste	response	3	122	2	foodImage.117	FOODEEG_Images\0925.jpg	YN	Left	Yes	0.958075599977747	0	455656	234
890.994140625	1	taste	trialStart	3	123	3	foodImage.8	FOODEEG_Images\0136.jpg	NY	Right	Yes	1.00827260012738	0	456190	251
892.037109375	2	taste	foodImageDisplay	3	123	3	foodImage.8	FOODEEG_Images\0136.jpg	NY	Right	Yes	1.00827260012738	0	456724	252
894.103515625	1.00827260012738	taste	choicePhaseStart	3	123	3	foodImage.8	FOODEEG_Images\0136.jpg	NY	Right	Yes	1.00827260012738	0	457782	253
895.103515625	0	taste	response	3	123	3	foodImage.8	FOODEEG_Images\0136.jpg	NY	Right	Yes	1.00827260012738	0	458294	235
896.14453125	1	taste	trialStart	3	124	4	foodImage.28	FOODEEG_Images\0273.jpg	YN	Left	Yes	0.732161699794233	0	458827	251
897.1875	2	taste	foodImageDisplay	3	124	4	foodImage.28	FOODEEG_Images\0273.jpg	YN	Left	Yes	0.732161699794233	0	459361	252
899.251953125	0.732161699794233	taste	choicePhaseStart	3	124	4	foodImage.28	FOODEEG_Images\0273.jpg	YN	Left	Yes	0.732161699794233	0	460418	253
899.974609375	0	taste	response	3	124	4	foodImage.28	FOODEEG_Images\0273.jpg	YN	Left	Yes	0.732161699794233	0	460788	234
901.017578125	1	health	trialStart	3	125	5	foodImage.86	FOODEEG_Images\0844.jpg	YN	Right	No	0.876154200173914	0	461322	251
902.076171875	2	health	foodImageDisplay	3	125	5	foodImage.86	FOODEEG_Images\0844.jpg	YN	Right	No	0.876154200173914	0	461864	252
904.140625	0.876154200173914	health	choicePhaseStart	3	125	5	foodImage.86	FOODEEG_Images\0844.jpg	YN	Right	No	0.876154200173914	0	462921	253
905.005859375	0	health	response	3	125	5	foodImage.86	FOODEEG_Images\0844.jpg	YN	Right	No	0.876154200173914	0	463364	235
906.05078125	1	taste	trialStart	3	126	6	foodImage.72	FOODEEG_Images\0714.jpg	YN	Left	Yes	0.62536899978295	0	463899	251
907.09375	2	taste	foodImageDisplay	3	126	6	foodImage.72	FOODEEG_Images\0714.jpg	YN	Left	Yes	0.62536899978295	0	464433	252
909.158203125	0.62536899978295	taste	choicePhaseStart	3	126	6	foodImage.72	FOODEEG_Images\0714.jpg	YN	Left	Yes	0.62536899978295	0	465490	253
909.7734375	0	taste	response	3	126	6	foodImage.72	FOODEEG_Images\0714.jpg	YN	Left	Yes	0.62536899978295	0	465805	234
910.818359375	1	decision	trialStart	3	127	7	foodImage.6	FOODEEG_Images\0113.jpg	NY	Right	Yes	0.57109780004248	0	466340	251
911.861328125	2	decision	foodImageDisplay	3	127	7	foodImage.6	FOODEEG_Images\0113.jpg	NY	Right	Yes	0.57109780004248	0	466874	252
913.923828125	0.57109780004248	decision	choicePhaseStart	3	127	7	foodImage.6	FOODEEG_Images\0113.jpg	NY	Right	Yes	0.57109780004248	0	467930	253
914.486328125	0	decision	response	3	127	7	foodImage.6	FOODEEG_Images\0113.jpg	NY	Right	Yes	0.57109780004248	0	468218	235
915.525390625	1	decision	trialStart	3	128	8	foodImage.68	FOODEEG_Images\0685.jpg	NY	Right	Yes	0.675924199866131	0	468750	251
916.60546875	2	decision	foodImageDisplay	3	128	8	foodImage.68	FOODEEG_Images\0685.jpg	NY	Right	Yes	0.675924199866131	0	469303	252
918.66796875	0.675924199866131	decision	choicePhaseStart	3	128	8	foodImage.68	FOODEEG_Images\0685.jpg	NY	Right	Yes	0.675924199866131	0	470359	253
919.333984375	0	decision	response	3	128	8	foodImage.68	FOODEEG_Images\0685.jpg	NY	Right	Yes	0.675924199866131	0	470700	235
920.376953125	1	taste	trialStart	3	129	9	foodImage.30	FOODEEG_Images\0282.jpg	NY	Right	Yes	0.613935899920762	0	471234	251
921.41796875	2	taste	foodImageDisplay	3	129	9	foodImage.30	FOODEEG_Images\0282.jpg	NY	Right	Yes	0.613935899920762	0	471767	252
923.48046875	0.613935899920762	taste	choicePhaseStart	3	129	9	foodImage.30	FOODEEG_Images\0282.jpg	NY	Right	Yes	0.613935899920762	0	472823	253
924.0859375	0	taste	response	3	129	9	foodImage.30	FOODEEG_Images\0282.jpg	NY	Right	Yes	0.613935899920762	0	473133	235
925.12890625	1	health	trialStart	3	130	10	foodImage.10	FOODEEG_Images\0145.jpg	YN	Right	No	1.81675599981099	0	473667	251
926.189453125	2	health	foodImageDisplay	3	130	10	foodImage.10	FOODEEG_Images\0145.jpg	YN	Right	No	1.81675599981099	0	474210	252
928.25390625	1.81675599981099	health	choicePhaseStart	3	130	10	foodImage.10	FOODEEG_Images\0145.jpg	YN	Right	No	1.81675599981099	0	475267	253
930.060546875	0	health	response	3	130	10	foodImage.10	FOODEEG_Images\0145.jpg	YN	Right	No	1.81675599981099	0	476192	235
931.10546875	1	taste	trialStart	3	131	11	foodImage.87	FOODEEG_Images\0873.jpg	YN	Left	Yes	0.71674480009824	0	476727	251
932.162109375	2	taste	foodImageDisplay	3	131	11	foodImage.87	FOODEEG_Images\0873.jpg	YN	Left	Yes	0.71674480009824	0	477268	252
934.224609375	0.71674480009824	taste	choicePhaseStart	3	131	11	foodImage.87	FOODEEG_Images\0873.jpg	YN	Left	Yes	0.71674480009824	0	478324	253
934.93359375	0	taste	response	3	131	11	foodImage.87	FOODEEG_Images\0873.jpg	YN	Left	Yes	0.71674480009824	0	478687	234
935.982421875	1	decision	trialStart	3	132	12	foodImage.21	FOODEEG_Images\0234.jpg	NY	Right	Yes	0.564576100092381	0	479224	251
937.041015625	2	decision	foodImageDisplay	3	132	12	foodImage.21	FOODEEG_Images\0234.jpg	NY	Right	Yes	0.564576100092381	0	479766	252
939.10546875	0.564576100092381	decision	choicePhaseStart	3	132	12	foodImage.21	FOODEEG_Images\0234.jpg	NY	Right	Yes	0.564576100092381	0	480823	253
939.66015625	0	decision	response	3	132	12	foodImage.21	FOODEEG_Images\0234.jpg	NY	Right	Yes	0.564576100092381	0	481107	235
940.705078125	1	decision	trialStart	3	133	13	foodImage.7	FOODEEG_Images\0116.jpg	NY	Right	Yes	0.573595200199634	0	481642	251
941.75	2	decision	foodImageDisplay	3	133	13	foodImage.7	FOODEEG_Images\0116.jpg	NY	Right	Yes	0.573595200199634	0	482177	252
943.814453125	0.573595200199634	decision	choicePhaseStart	3	133	13	foodImage.7	FOODEEG_Images\0116.jpg	NY	Right	Yes	0.573595200199634	0	483234	253
944.380859375	0	decision	response	3	133	13	foodImage.7	FOODEEG_Images\0116.jpg	NY	Right	Yes	0.573595200199634	0	483524	235
945.423828125	1	taste	trialStart	3	134	14	foodImage.118	FOODEEG_Images\0926.jpg	YN	Right	No	0.833345399936661	0	484058	251
946.462890625	2	taste	foodImageDisplay	3	134	14	foodImage.118	FOODEEG_Images\0926.jpg	YN	Right	No	0.833345399936661	0	484590	252
948.525390625	0.833345399936661	taste	choicePhaseStart	3	134	14	foodImage.118	FOODEEG_Images\0926.jpg	YN	Right	No	0.833345399936661	0	485646	253
949.34765625	0	taste	response	3	134	14	foodImage.118	FOODEEG_Images\0926.jpg	YN	Right	No	0.833345399936661	0	486067	235
950.39453125	1	health	trialStart	3	135	15	foodImage.19	FOODEEG_Images\0225.jpg	YN	Left	Yes	0.863957100082189	0	486603	251
951.4375	2	health	foodImageDisplay	3	135	15	foodImage.19	FOODEEG_Images\0225.jpg	YN	Left	Yes	0.863957100082189	0	487137	252
953.501953125	0.863957100082189	health	choicePhaseStart	3	135	15	foodImage.19	FOODEEG_Images\0225.jpg	YN	Left	Yes	0.863957100082189	0	488194	253
954.35546875	0	health	response	3	135	15	foodImage.19	FOODEEG_Images\0225.jpg	YN	Left	Yes	0.863957100082189	0	488631	234
955.3984375	1	health	trialStart	3	136	16	foodImage.41	FOODEEG_Images\0409.jpg	YN	Left	Yes	0.75695849978365	0	489165	251
956.455078125	2	health	foodImageDisplay	3	136	16	foodImage.41	FOODEEG_Images\0409.jpg	YN	Left	Yes	0.75695849978365	0	489706	252
958.51953125	0.75695849978365	health	choicePhaseStart	3	136	16	foodImage.41	FOODEEG_Images\0409.jpg	YN	Left	Yes	0.75695849978365	0	490763	253
959.267578125	0	health	response	3	136	16	foodImage.41	FOODEEG_Images\0409.jpg	YN	Left	Yes	0.75695849978365	0	491146	234
960.310546875	1	health	trialStart	3	137	17	foodImage.26	FOODEEG_Images\0262.jpg	NY	Right	Yes	0.557073900010437	0	491680	251
961.353515625	2	health	foodImageDisplay	3	137	17	foodImage.26	FOODEEG_Images\0262.jpg	NY	Right	Yes	0.557073900010437	0	492214	252
963.416015625	0.557073900010437	health	choicePhaseStart	3	137	17	foodImage.26	FOODEEG_Images\0262.jpg	NY	Right	Yes	0.557073900010437	0	493270	253
963.96484375	0	health	response	3	137	17	foodImage.26	FOODEEG_Images\0262.jpg	NY	Right	Yes	0.557073900010437	0	493551	235
965.005859375	1	decision	trialStart	3	138	18	foodImage.17	FOODEEG_Images\0199.jpg	NY	Right	Yes	0.632203200133517	0	494084	251
966.05078125	2	decision	foodImageDisplay	3	138	18	foodImage.17	FOODEEG_Images\0199.jpg	NY	Right	Yes	0.632203200133517	0	494619	252
968.115234375	0.632203200133517	decision	choicePhaseStart	3	138	18	foodImage.17	FOODEEG_Images\0199.jpg	NY	Right	Yes	0.632203200133517	0	495676	253
968.740234375	0	decision	response	3	138	18	foodImage.17	FOODEEG_Images\0199.jpg	NY	Right	Yes	0.632203200133517	0	495996	235
969.783203125	1	decision	trialStart	3	139	19	foodImage.12	FOODEEG_Images\0181.jpg	YN	Left	Yes	0.548342899885029	0	496530	251
970.845703125	2	decision	foodImageDisplay	3	139	19	foodImage.12	FOODEEG_Images\0181.jpg	YN	Left	Yes	0.548342899885029	0	497074	252
972.912109375	0.548342899885029	decision	choicePhaseStart	3	139	19	foodImage.12	FOODEEG_Images\0181.jpg	YN	Left	Yes	0.548342899885029	0	498132	253
973.451171875	0	decision	response	3	139	19	foodImage.12	FOODEEG_Images\0181.jpg	YN	Left	Yes	0.548342899885029	0	498408	234
974.49609375	1	taste	trialStart	3	140	20	foodImage.34	FOODEEG_Images\0339.jpg	YN	Left	Yes	0.697494299849495	0	498943	251
975.5546875	2	taste	foodImageDisplay	3	140	20	foodImage.34	FOODEEG_Images\0339.jpg	YN	Left	Yes	0.697494299849495	0	499485	252
977.619140625	0.697494299849495	taste	choicePhaseStart	3	140	20	foodImage.34	FOODEEG_Images\0339.jpg	YN	Left	Yes	0.697494299849495	0	500542	253
978.306640625	0	taste	response	3	140	20	foodImage.34	FOODEEG_Images\0339.jpg	YN	Left	Yes	0.697494299849495	0	500894	234
979.3515625	1	health	trialStart	3	141	21	foodImage.64	FOODEEG_Images\0647.jpg	YN	Left	Yes	0.55173119995743	0	501429	251
980.412109375	2	health	foodImageDisplay	3	141	21	foodImage.64	FOODEEG_Images\0647.jpg	YN	Left	Yes	0.55173119995743	0	501972	252
982.4765625	0.55173119995743	health	choicePhaseStart	3	141	21	foodImage.64	FOODEEG_Images\0647.jpg	YN	Left	Yes	0.55173119995743	0	503029	253
983.01953125	0	health	response	3	141	21	foodImage.64	FOODEEG_Images\0647.jpg	YN	Left	Yes	0.55173119995743	0	503307	234
984.0625	1	taste	trialStart	3	142	22	foodImage.53	FOODEEG_Images\0547.jpg	YN	Left	Yes	0.748369199922308	0	503841	251
985.12109375	2	taste	foodImageDisplay	3	142	22	foodImage.53	FOODEEG_Images\0547.jpg	YN	Left	Yes	0.748369199922308	0	504383	252
987.18359375	0.748369199922308	taste	choicePhaseStart	3	142	22	foodImage.53	FOODEEG_Images\0547.jpg	YN	Left	Yes	0.748369199922308	0	505439	253
987.923828125	0	taste	response	3	142	22	foodImage.53	FOODEEG_Images\0547.jpg	YN	Left	Yes	0.748369199922308	0	505818	234
988.96875	1	decision	trialStart	3	143	23	foodImage.37	FOODEEG_Images\0359.jpg	YN	Left	Yes	0.581114799948409	0	506353	251
990.009765625	2	decision	foodImageDisplay	3	143	23	foodImage.37	FOODEEG_Images\0359.jpg	YN	Left	Yes	0.581114799948409	0	506886	252
992.078125	0.581114799948409	decision	choicePhaseStart	3	143	23	foodImage.37	FOODEEG_Images\0359.jpg	YN	Left	Yes	0.581114799948409	0	507945	253
992.650390625	0	decision	response	3	143	23	foodImage.37	FOODEEG_Images\0359.jpg	YN	Left	Yes	0.581114799948409	0	508238	234
993.6953125	1	decision	trialStart	3	144	24	foodImage.65	FOODEEG_Images\0658.jpg	YN	Left	Yes	0.453041099943221	0	508773	251
994.736328125	2	decision	foodImageDisplay	3	144	24	foodImage.65	FOODEEG_Images\0658.jpg	YN	Left	Yes	0.453041099943221	0	509306	252
996.798828125	0.453041099943221	decision	choicePhaseStart	3	144	24	foodImage.65	FOODEEG_Images\0658.jpg	YN	Left	Yes	0.453041099943221	0	510362	253
997.2421875	0	decision	response	3	144	24	foodImage.65	FOODEEG_Images\0658.jpg	YN	Left	Yes	0.453041099943221	0	510589	234
998.28515625	1	decision	trialStart	3	145	25	foodImage.105	FOODEEG_Images\0913.jpg	NY	Right	Yes	0.816854099975899	0	511123	251
999.322265625	2	decision	foodImageDisplay	3	145	25	foodImage.105	FOODEEG_Images\0913.jpg	NY	Right	Yes	0.816854099975899	0	511654	252
1001.38671875	0.816854099975899	decision	choicePhaseStart	3	145	25	foodImage.105	FOODEEG_Images\0913.jpg	NY	Right	Yes	0.816854099975899	0	512711	253
1002.1953125	0	decision	response	3	145	25	foodImage.105	FOODEEG_Images\0913.jpg	NY	Right	Yes	0.816854099975899	0	513125	235
1003.23828125	1	decision	trialStart	3	146	26	foodImage.55	FOODEEG_Images\0567.jpg	YN	Left	Yes	0.837758700130507	0	513659	251
1004.30078125	2	decision	foodImageDisplay	3	146	26	foodImage.55	FOODEEG_Images\0567.jpg	YN	Left	Yes	0.837758700130507	0	514203	252
1006.365234375	0.837758700130507	decision	choicePhaseStart	3	146	26	foodImage.55	FOODEEG_Images\0567.jpg	YN	Left	Yes	0.837758700130507	0	515260	253
1007.193359375	0	decision	response	3	146	26	foodImage.55	FOODEEG_Images\0567.jpg	YN	Left	Yes	0.837758700130507	0	515684	234
1008.244140625	1	taste	trialStart	3	147	27	foodImage.80	FOODEEG_Images\0796.jpg	NY	Right	Yes	0.527403000043705	0	516222	251
1009.298828125	2	taste	foodImageDisplay	3	147	27	foodImage.80	FOODEEG_Images\0796.jpg	NY	Right	Yes	0.527403000043705	0	516762	252
1011.365234375	0.527403000043705	taste	choicePhaseStart	3	147	27	foodImage.80	FOODEEG_Images\0796.jpg	NY	Right	Yes	0.527403000043705	0	517820	253
1011.8828125	0	taste	response	3	147	27	foodImage.80	FOODEEG_Images\0796.jpg	NY	Right	Yes	0.527403000043705	0	518085	235
1012.923828125	1	taste	trialStart	3	148	28	foodImage.7	FOODEEG_Images\0116.jpg	NY	Right	Yes	0.753661399940029	0	518618	251
1013.962890625	2	taste	foodImageDisplay	3	148	28	foodImage.7	FOODEEG_Images\0116.jpg	NY	Right	Yes	0.753661399940029	0	519150	252
1016.025390625	0.753661399940029	taste	choicePhaseStart	3	148	28	foodImage.7	FOODEEG_Images\0116.jpg	NY	Right	Yes	0.753661399940029	0	520206	253
1016.76953125	0	taste	response	3	148	28	foodImage.7	FOODEEG_Images\0116.jpg	NY	Right	Yes	0.753661399940029	0	520587	235
1017.8125	1	taste	trialStart	3	149	29	foodImage.20	FOODEEG_Images\0226.jpg	NY	Right	Yes	0.948863500030711	0	521121	251
1018.85546875	2	taste	foodImageDisplay	3	149	29	foodImage.20	FOODEEG_Images\0226.jpg	NY	Right	Yes	0.948863500030711	0	521655	252
1020.91796875	0.948863500030711	taste	choicePhaseStart	3	149	29	foodImage.20	FOODEEG_Images\0226.jpg	NY	Right	Yes	0.948863500030711	0	522711	253
1021.857421875	0	taste	response	3	149	29	foodImage.20	FOODEEG_Images\0226.jpg	NY	Right	Yes	0.948863500030711	0	523192	235
1022.90234375	1	health	trialStart	3	150	30	foodImage.62	FOODEEG_Images\0644.jpg	NY	Right	Yes	0.754889200208709	0	523727	251
1023.962890625	2	health	foodImageDisplay	3	150	30	foodImage.62	FOODEEG_Images\0644.jpg	NY	Right	Yes	0.754889200208709	0	524270	252
1026.0234375	0.754889200208709	health	choicePhaseStart	3	150	30	foodImage.62	FOODEEG_Images\0644.jpg	NY	Right	Yes	0.754889200208709	0	525325	253
1026.76953125	0	health	response	3	150	30	foodImage.62	FOODEEG_Images\0644.jpg	NY	Right	Yes	0.754889200208709	0	525707	235
1027.8125	1	taste	trialStart	3	151	31	foodImage.39	FOODEEG_Images\0367.jpg	YN	Left	Yes	0.832727100001648	0	526241	251
1028.8515625	2	taste	foodImageDisplay	3	151	31	foodImage.39	FOODEEG_Images\0367.jpg	YN	Left	Yes	0.832727100001648	0	526773	252
1030.9140625	0.832727100001648	taste	choicePhaseStart	3	151	31	foodImage.39	FOODEEG_Images\0367.jpg	YN	Left	Yes	0.832727100001648	0	527829	253
1031.73828125	0	taste	response	3	151	31	foodImage.39	FOODEEG_Images\0367.jpg	YN	Left	Yes	0.832727100001648	0	528251	234
1032.78125	1	taste	trialStart	3	152	32	foodImage.27	FOODEEG_Images\0263.jpg	YN	Left	Yes	0.48439299990423	0	528785	251
1033.822265625	2	taste	foodImageDisplay	3	152	32	foodImage.27	FOODEEG_Images\0263.jpg	YN	Left	Yes	0.48439299990423	0	529318	252
1035.88671875	0.48439299990423	taste	choicePhaseStart	3	152	32	foodImage.27	FOODEEG_Images\0263.jpg	YN	Left	Yes	0.48439299990423	0	530375	253
1036.361328125	0	taste	response	3	152	32	foodImage.27	FOODEEG_Images\0263.jpg	YN	Left	Yes	0.48439299990423	0	530618	234
1037.4140625	1	decision	trialStart	3	153	33	foodImage.10	FOODEEG_Images\0145.jpg	NY	Right	Yes	0.849921500077471	0	531157	251
1038.47265625	2	decision	foodImageDisplay	3	153	33	foodImage.10	FOODEEG_Images\0145.jpg	NY	Right	Yes	0.849921500077471	0	531699	252
1040.537109375	0.849921500077471	decision	choicePhaseStart	3	153	33	foodImage.10	FOODEEG_Images\0145.jpg	NY	Right	Yes	0.849921500077471	0	532756	253
1041.376953125	0	decision	response	3	153	33	foodImage.10	FOODEEG_Images\0145.jpg	NY	Right	Yes	0.849921500077471	0	533186	235
1042.419921875	1	decision	trialStart	3	154	34	foodImage.16	FOODEEG_Images\0196.jpg	NY	Right	Yes	0.702868999913335	0	533720	251
1043.48046875	2	decision	foodImageDisplay	3	154	34	foodImage.16	FOODEEG_Images\0196.jpg	NY	Right	Yes	0.702868999913335	0	534263	252
1045.546875	0.702868999913335	decision	choicePhaseStart	3	154	34	foodImage.16	FOODEEG_Images\0196.jpg	NY	Right	Yes	0.702868999913335	0	535321	253
1046.240234375	0	decision	response	3	154	34	foodImage.16	FOODEEG_Images\0196.jpg	NY	Right	Yes	0.702868999913335	0	535676	235
1047.2890625	1	taste	trialStart	3	155	35	foodImage.113	FOODEEG_Images\0921.jpg	YN	Right	No	1.26380009995773	0	536213	251
1048.328125	2	taste	foodImageDisplay	3	155	35	foodImage.113	FOODEEG_Images\0921.jpg	YN	Right	No	1.26380009995773	0	536745	252
1050.39453125	1.26380009995773	taste	choicePhaseStart	3	155	35	foodImage.113	FOODEEG_Images\0921.jpg	YN	Right	No	1.26380009995773	0	537803	253
1051.6484375	0	taste	response	3	155	35	foodImage.113	FOODEEG_Images\0921.jpg	YN	Right	No	1.26380009995773	0	538445	235
1052.693359375	1	health	trialStart	3	156	36	foodImage.53	FOODEEG_Images\0547.jpg	NY	Left	No	0.890502599999309	0	538980	251
1053.75	2	health	foodImageDisplay	3	156	36	foodImage.53	FOODEEG_Images\0547.jpg	NY	Left	No	0.890502599999309	0	539521	252
1055.8125	0.890502599999309	health	choicePhaseStart	3	156	36	foodImage.53	FOODEEG_Images\0547.jpg	NY	Left	No	0.890502599999309	0	540577	253
1056.697265625	0	health	response	3	156	36	foodImage.53	FOODEEG_Images\0547.jpg	NY	Left	No	0.890502599999309	0	541030	234
1057.74609375	1	taste	trialStart	3	157	37	foodImage.1	FOODEEG_Images\0004.jpg	YN	Left	Yes	1.19685010006651	0	541567	251
1058.7890625	2	taste	foodImageDisplay	3	157	37	foodImage.1	FOODEEG_Images\0004.jpg	YN	Left	Yes	1.19685010006651	0	542101	252
1060.853515625	1.19685010006651	taste	choicePhaseStart	3	157	37	foodImage.1	FOODEEG_Images\0004.jpg	YN	Left	Yes	1.19685010006651	0	543158	253
1062.041015625	0	taste	response	3	157	37	foodImage.1	FOODEEG_Images\0004.jpg	YN	Left	Yes	1.19685010006651	0	543766	234
1063.083984375	1	health	trialStart	3	158	38	foodImage.70	FOODEEG_Images\0705.jpg	YN	Right	No	1.5323822000064	0	544300	251
1064.140625	2	health	foodImageDisplay	3	158	38	foodImage.70	FOODEEG_Images\0705.jpg	YN	Right	No	1.5323822000064	0	544841	252
1066.205078125	1.5323822000064	health	choicePhaseStart	3	158	38	foodImage.70	FOODEEG_Images\0705.jpg	YN	Right	No	1.5323822000064	0	545898	253
1067.728515625	0	health	response	3	158	38	foodImage.70	FOODEEG_Images\0705.jpg	YN	Right	No	1.5323822000064	0	546678	235
1068.779296875	1	health	trialStart	3	159	39	foodImage.72	FOODEEG_Images\0714.jpg	NY	Right	Yes	0.685477700084448	0	547216	251
1069.826171875	2	health	foodImageDisplay	3	159	39	foodImage.72	FOODEEG_Images\0714.jpg	NY	Right	Yes	0.685477700084448	0	547752	252
1071.890625	0.685477700084448	health	choicePhaseStart	3	159	39	foodImage.72	FOODEEG_Images\0714.jpg	NY	Right	Yes	0.685477700084448	0	548809	253
1072.568359375	0	health	response	3	159	39	foodImage.72	FOODEEG_Images\0714.jpg	NY	Right	Yes	0.685477700084448	0	549156	235
1073.611328125	1	taste	trialStart	3	160	40	foodImage.120	FOODEEG_Images\0928.jpg	NY	Left	No	0.849876399850473	0	549690	251
1074.650390625	2	taste	foodImageDisplay	3	160	40	foodImage.120	FOODEEG_Images\0928.jpg	NY	Left	No	0.849876399850473	0	550222	252
1076.7109375	0.849876399850473	taste	choicePhaseStart	3	160	40	foodImage.120	FOODEEG_Images\0928.jpg	NY	Left	No	0.849876399850473	0	551277	253
1077.55078125	0	taste	response	3	160	40	foodImage.120	FOODEEG_Images\0928.jpg	NY	Left	No	0.849876399850473	0	551707	234
1078.595703125	1	health	trialStart	3	161	41	foodImage.76	FOODEEG_Images\0766.jpg	YN	Left	Yes	0.641389300115407	0	552242	251
1079.640625	2	health	foodImageDisplay	3	161	41	foodImage.76	FOODEEG_Images\0766.jpg	YN	Left	Yes	0.641389300115407	0	552777	252
1081.708984375	0.641389300115407	health	choicePhaseStart	3	161	41	foodImage.76	FOODEEG_Images\0766.jpg	YN	Left	Yes	0.641389300115407	0	553836	253
1082.34375	0	health	response	3	161	41	foodImage.76	FOODEEG_Images\0766.jpg	YN	Left	Yes	0.641389300115407	0	554161	234
1083.384765625	1	health	trialStart	3	162	42	foodImage.16	FOODEEG_Images\0196.jpg	YN	Left	Yes	0.639657699968666	0	554694	251
1084.44140625	2	health	foodImageDisplay	3	162	42	foodImage.16	FOODEEG_Images\0196.jpg	YN	Left	Yes	0.639657699968666	0	555235	252
1086.50390625	0.639657699968666	health	choicePhaseStart	3	162	42	foodImage.16	FOODEEG_Images\0196.jpg	YN	Left	Yes	0.639657699968666	0	556291	253
1087.134765625	0	health	response	3	162	42	foodImage.16	FOODEEG_Images\0196.jpg	YN	Left	Yes	0.639657699968666	0	556614	234
1088.177734375	1	health	trialStart	3	163	43	foodImage.33	FOODEEG_Images\0329.jpg	YN	Left	Yes	0.484845500206575	0	557148	251
1089.220703125	2	health	foodImageDisplay	3	163	43	foodImage.33	FOODEEG_Images\0329.jpg	YN	Left	Yes	0.484845500206575	0	557682	252
1091.283203125	0.484845500206575	health	choicePhaseStart	3	163	43	foodImage.33	FOODEEG_Images\0329.jpg	YN	Left	Yes	0.484845500206575	0	558738	253
1091.759765625	0	health	response	3	163	43	foodImage.33	FOODEEG_Images\0329.jpg	YN	Left	Yes	0.484845500206575	0	558982	234
1092.80078125	1	decision	trialStart	3	164	44	foodImage.39	FOODEEG_Images\0367.jpg	NY	Right	Yes	0.738551700022072	0	559515	251
1093.837890625	2	decision	foodImageDisplay	3	164	44	foodImage.39	FOODEEG_Images\0367.jpg	NY	Right	Yes	0.738551700022072	0	560046	252
1095.90625	0.738551700022072	decision	choicePhaseStart	3	164	44	foodImage.39	FOODEEG_Images\0367.jpg	NY	Right	Yes	0.738551700022072	0	561105	253
1096.638671875	0	decision	response	3	164	44	foodImage.39	FOODEEG_Images\0367.jpg	NY	Right	Yes	0.738551700022072	0	561480	235
1097.681640625	1	decision	trialStart	3	165	45	foodImage.114	FOODEEG_Images\0922.jpg	NY	Left	No	0.673787900013849	0	562014	251
1098.71875	2	decision	foodImageDisplay	3	165	45	foodImage.114	FOODEEG_Images\0922.jpg	NY	Left	No	0.673787900013849	0	562545	252
1100.78125	0.673787900013849	decision	choicePhaseStart	3	165	45	foodImage.114	FOODEEG_Images\0922.jpg	NY	Left	No	0.673787900013849	0	563601	253
1101.447265625	0	decision	response	3	165	45	foodImage.114	FOODEEG_Images\0922.jpg	NY	Left	No	0.673787900013849	0	563942	234
1102.49609375	1	health	trialStart	3	166	46	foodImage.68	FOODEEG_Images\0685.jpg	YN	Left	Yes	0.620449899928644	0	564479	251
1103.572265625	2	health	foodImageDisplay	3	166	46	foodImage.68	FOODEEG_Images\0685.jpg	YN	Left	Yes	0.620449899928644	0	565030	252
1105.634765625	0.620449899928644	health	choicePhaseStart	3	166	46	foodImage.68	FOODEEG_Images\0685.jpg	YN	Left	Yes	0.620449899928644	0	566086	253
1106.24609375	0	health	response	3	166	46	foodImage.68	FOODEEG_Images\0685.jpg	YN	Left	Yes	0.620449899928644	0	566399	234
1107.29296875	1	health	trialStart	3	167	47	foodImage.20	FOODEEG_Images\0226.jpg	YN	Left	Yes	1.00093019986525	0	566935	251
1108.333984375	2	health	foodImageDisplay	3	167	47	foodImage.20	FOODEEG_Images\0226.jpg	YN	Left	Yes	1.00093019986525	0	567468	252
1110.3984375	1.00093019986525	health	choicePhaseStart	3	167	47	foodImage.20	FOODEEG_Images\0226.jpg	YN	Left	Yes	1.00093019986525	0	568525	253
1111.390625	0	health	response	3	167	47	foodImage.20	FOODEEG_Images\0226.jpg	YN	Left	Yes	1.00093019986525	0	569033	234
1112.43359375	1	health	trialStart	3	168	48	foodImage.118	FOODEEG_Images\0926.jpg	NY	Left	No	0.948073300067335	0	569567	251
1113.474609375	2	health	foodImageDisplay	3	168	48	foodImage.118	FOODEEG_Images\0926.jpg	NY	Left	No	0.948073300067335	0	570100	252
1115.5390625	0.948073300067335	health	choicePhaseStart	3	168	48	foodImage.118	FOODEEG_Images\0926.jpg	NY	Left	No	0.948073300067335	0	571157	253
1116.478515625	0	health	response	3	168	48	foodImage.118	FOODEEG_Images\0926.jpg	NY	Left	No	0.948073300067335	0	571638	234
1117.521484375	1	decision	trialStart	3	169	49	foodImage.83	FOODEEG_Images\0827.jpg	YN	Left	Yes	1.12466070009395	0	572172	251
1118.580078125	2	decision	foodImageDisplay	3	169	49	foodImage.83	FOODEEG_Images\0827.jpg	YN	Left	Yes	1.12466070009395	0	572714	252
1120.642578125	1.12466070009395	decision	choicePhaseStart	3	169	49	foodImage.83	FOODEEG_Images\0827.jpg	YN	Left	Yes	1.12466070009395	0	573770	253
1121.7578125	0	decision	response	3	169	49	foodImage.83	FOODEEG_Images\0827.jpg	YN	Left	Yes	1.12466070009395	0	574341	234
1122.80078125	1	health	trialStart	3	170	50	foodImage.5	FOODEEG_Images\0107.jpg	NY	Left	No	0.741024300223216	0	574875	251
1123.857421875	2	health	foodImageDisplay	3	170	50	foodImage.5	FOODEEG_Images\0107.jpg	NY	Left	No	0.741024300223216	0	575416	252
1125.921875	0.741024300223216	health	choicePhaseStart	3	170	50	foodImage.5	FOODEEG_Images\0107.jpg	NY	Left	No	0.741024300223216	0	576473	253
1126.654296875	0	health	response	3	170	50	foodImage.5	FOODEEG_Images\0107.jpg	NY	Left	No	0.741024300223216	0	576848	234
1127.697265625	1	taste	trialStart	3	171	51	foodImage.43	FOODEEG_Images\0445.jpg	NY	Right	Yes	1.06194129982032	0	577382	251
1128.75390625	2	taste	foodImageDisplay	3	171	51	foodImage.43	FOODEEG_Images\0445.jpg	NY	Right	Yes	1.06194129982032	0	577923	252
1130.81640625	1.06194129982032	taste	choicePhaseStart	3	171	51	foodImage.43	FOODEEG_Images\0445.jpg	NY	Right	Yes	1.06194129982032	0	578979	253
1131.869140625	0	taste	response	3	171	51	foodImage.43	FOODEEG_Images\0445.jpg	NY	Right	Yes	1.06194129982032	0	579518	235
1132.912109375	1	taste	trialStart	3	172	52	foodImage.25	FOODEEG_Images\0261.jpg	NY	Left	No	0.542391299968585	0	580052	251
1133.955078125	2	taste	foodImageDisplay	3	172	52	foodImage.25	FOODEEG_Images\0261.jpg	NY	Left	No	0.542391299968585	0	580586	252
1136.017578125	0.542391299968585	taste	choicePhaseStart	3	172	52	foodImage.25	FOODEEG_Images\0261.jpg	NY	Left	No	0.542391299968585	0	581642	253
1136.548828125	0	taste	response	3	172	52	foodImage.25	FOODEEG_Images\0261.jpg	NY	Left	No	0.542391299968585	0	581914	234
1137.59375	1	taste	trialStart	3	173	53	foodImage.82	FOODEEG_Images\0805.jpg	NY	Right	Yes	0.681746399961412	0	582449	251
1138.6484375	2	taste	foodImageDisplay	3	173	53	foodImage.82	FOODEEG_Images\0805.jpg	NY	Right	Yes	0.681746399961412	0	582989	252
1140.712890625	0.681746399961412	taste	choicePhaseStart	3	173	53	foodImage.82	FOODEEG_Images\0805.jpg	NY	Right	Yes	0.681746399961412	0	584046	253
1141.388671875	0	taste	response	3	173	53	foodImage.82	FOODEEG_Images\0805.jpg	NY	Right	Yes	0.681746399961412	0	584392	235
1142.4375	1	decision	trialStart	3	174	54	foodImage.112	FOODEEG_Images\0920.jpg	YN	Right	No	1.01214529993013	0	584929	251
1143.4765625	2	decision	foodImageDisplay	3	174	54	foodImage.112	FOODEEG_Images\0920.jpg	YN	Right	No	1.01214529993013	0	585461	252
1145.544921875	1.01214529993013	decision	choicePhaseStart	3	174	54	foodImage.112	FOODEEG_Images\0920.jpg	YN	Right	No	1.01214529993013	0	586520	253
1146.548828125	0	decision	response	3	174	54	foodImage.112	FOODEEG_Images\0920.jpg	YN	Right	No	1.01214529993013	0	587034	235
1147.59375	1	taste	trialStart	3	175	55	foodImage.59	FOODEEG_Images\0607.jpg	NY	Right	Yes	0.93954429985024	0	587569	251
1148.640625	2	taste	foodImageDisplay	3	175	55	foodImage.59	FOODEEG_Images\0607.jpg	NY	Right	Yes	0.93954429985024	0	588105	252
1150.703125	0.93954429985024	taste	choicePhaseStart	3	175	55	foodImage.59	FOODEEG_Images\0607.jpg	NY	Right	Yes	0.93954429985024	0	589161	253
1151.63671875	0	taste	response	3	175	55	foodImage.59	FOODEEG_Images\0607.jpg	NY	Right	Yes	0.93954429985024	0	589639	235
1152.6875	1	decision	trialStart	3	176	56	foodImage.63	FOODEEG_Images\0645.jpg	NY	Right	Yes	0.752496300032362	0	590177	251
1153.73046875	2	decision	foodImageDisplay	3	176	56	foodImage.63	FOODEEG_Images\0645.jpg	NY	Right	Yes	0.752496300032362	0	590711	252
1155.794921875	0.752496300032362	decision	choicePhaseStart	3	176	56	foodImage.63	FOODEEG_Images\0645.jpg	NY	Right	Yes	0.752496300032362	0	591768	253
1156.541015625	0	decision	response	3	176	56	foodImage.63	FOODEEG_Images\0645.jpg	NY	Right	Yes	0.752496300032362	0	592150	235
1157.583984375	1	taste	trialStart	3	177	57	foodImage.85	FOODEEG_Images\0841.jpg	YN	Left	Yes	0.703380099963397	0	592684	251
1158.646484375	2	taste	foodImageDisplay	3	177	57	foodImage.85	FOODEEG_Images\0841.jpg	YN	Left	Yes	0.703380099963397	0	593228	252
1160.708984375	0.703380099963397	taste	choicePhaseStart	3	177	57	foodImage.85	FOODEEG_Images\0841.jpg	YN	Left	Yes	0.703380099963397	0	594284	253
1161.404296875	0	taste	response	3	177	57	foodImage.85	FOODEEG_Images\0841.jpg	YN	Left	Yes	0.703380099963397	0	594640	234
1162.44921875	1	decision	trialStart	3	178	58	foodImage.75	FOODEEG_Images\0763.jpg	YN	Left	Yes	0.779131600167602	0	595175	251
1163.494140625	2	decision	foodImageDisplay	3	178	58	foodImage.75	FOODEEG_Images\0763.jpg	YN	Left	Yes	0.779131600167602	0	595710	252
1165.5625	0.779131600167602	decision	choicePhaseStart	3	178	58	foodImage.75	FOODEEG_Images\0763.jpg	YN	Left	Yes	0.779131600167602	0	596769	253
1166.33203125	0	decision	response	3	178	58	foodImage.75	FOODEEG_Images\0763.jpg	YN	Left	Yes	0.779131600167602	0	597163	234
1167.375	1	health	trialStart	3	179	59	foodImage.44	FOODEEG_Images\0459.jpg	NY	Right	Yes	0.602995800087228	0	597697	251
1168.419921875	2	health	foodImageDisplay	3	179	59	foodImage.44	FOODEEG_Images\0459.jpg	NY	Right	Yes	0.602995800087228	0	598232	252
1170.482421875	0.602995800087228	health	choicePhaseStart	3	179	59	foodImage.44	FOODEEG_Images\0459.jpg	NY	Right	Yes	0.602995800087228	0	599288	253
1171.076171875	0	health	response	3	179	59	foodImage.44	FOODEEG_Images\0459.jpg	NY	Right	Yes	0.602995800087228	0	599592	235
1172.130859375	1	decision	trialStart	3	180	60	foodImage.48	FOODEEG_Images\0494.jpg	YN	Left	Yes	0.53881759988144	0	600132	251
1173.193359375	2	decision	foodImageDisplay	3	180	60	foodImage.48	FOODEEG_Images\0494.jpg	YN	Left	Yes	0.53881759988144	0	600676	252
1175.2578125	0.53881759988144	decision	choicePhaseStart	3	180	60	foodImage.48	FOODEEG_Images\0494.jpg	YN	Left	Yes	0.53881759988144	0	601733	253
1175.787109375	0	decision	response	3	180	60	foodImage.48	FOODEEG_Images\0494.jpg	YN	Left	Yes	0.53881759988144	0	602004	234
1177.830078125	1.7109375	n/a	blockEnd	n/a	n/a	n/a	n/a	n/a	n/a	n/a	n/a	n/a	n/a	603050	254
1179.541015625	2	n/a	blockStart	4	n/a	n/a	n/a	n/a	n/a	n/a	n/a	n/a	n/a	603926	250
1181.572265625	1	health	trialStart	4	181	1	foodImage.39	FOODEEG_Images\0367.jpg	NY	Left	No	0.819405399961397	0	604966	251
1182.61328125	2	health	foodImageDisplay	4	181	1	foodImage.39	FOODEEG_Images\0367.jpg	NY	Left	No	0.819405399961397	0	605499	252
1184.681640625	0.819405399961397	health	choicePhaseStart	4	181	1	foodImage.39	FOODEEG_Images\0367.jpg	NY	Left	No	0.819405399961397	0	606558	253
1185.4921875	0	health	response	4	181	1	foodImage.39	FOODEEG_Images\0367.jpg	NY	Left	No	0.819405399961397	0	606973	234
1186.53515625	1	health	trialStart	4	182	2	foodImage.101	FOODEEG_Images\0909.jpg	NY	Left	No	0.814578599995002	0	607507	251
1187.57421875	2	health	foodImageDisplay	4	182	2	foodImage.101	FOODEEG_Images\0909.jpg	NY	Left	No	0.814578599995002	0	608039	252
1189.642578125	0.814578599995002	health	choicePhaseStart	4	182	2	foodImage.101	FOODEEG_Images\0909.jpg	NY	Left	No	0.814578599995002	0	609098	253
1190.451171875	0	health	response	4	182	2	foodImage.101	FOODEEG_Images\0909.jpg	NY	Left	No	0.814578599995002	0	609512	234
1191.494140625	1	decision	trialStart	4	183	3	foodImage.104	FOODEEG_Images\0912.jpg	NY	Right	Yes	0.575856500072405	0	610046	251
1192.533203125	2	decision	foodImageDisplay	4	183	3	foodImage.104	FOODEEG_Images\0912.jpg	NY	Right	Yes	0.575856500072405	0	610578	252
1194.595703125	0.575856500072405	decision	choicePhaseStart	4	183	3	foodImage.104	FOODEEG_Images\0912.jpg	NY	Right	Yes	0.575856500072405	0	611634	253
1195.162109375	0	decision	response	4	183	3	foodImage.104	FOODEEG_Images\0912.jpg	NY	Right	Yes	0.575856500072405	0	611924	235
1196.208984375	1	taste	trialStart	4	184	4	foodImage.37	FOODEEG_Images\0359.jpg	NY	Right	Yes	0.98914510011673	0	612460	251
1197.25	2	taste	foodImageDisplay	4	184	4	foodImage.37	FOODEEG_Images\0359.jpg	NY	Right	Yes	0.98914510011673	0	612993	252
1199.31640625	0.98914510011673	taste	choicePhaseStart	4	184	4	foodImage.37	FOODEEG_Images\0359.jpg	NY	Right	Yes	0.98914510011673	0	614051	253
1200.298828125	0	taste	response	4	184	4	foodImage.37	FOODEEG_Images\0359.jpg	NY	Right	Yes	0.98914510011673	0	614554	235
1201.341796875	1	health	trialStart	4	185	5	foodImage.91	FOODEEG_Images\0896.jpg	YN	Right	No	1.31708619999699	0	615088	251
1202.400390625	2	health	foodImageDisplay	4	185	5	foodImage.91	FOODEEG_Images\0896.jpg	YN	Right	No	1.31708619999699	0	615630	252
1204.462890625	1.31708619999699	health	choicePhaseStart	4	185	5	foodImage.91	FOODEEG_Images\0896.jpg	YN	Right	No	1.31708619999699	0	616686	253
1205.771484375	0	health	response	4	185	5	foodImage.91	FOODEEG_Images\0896.jpg	YN	Right	No	1.31708619999699	0	617356	235
1206.814453125	1	taste	trialStart	4	186	6	foodImage.58	FOODEEG_Images\0605.jpg	NY	Right	Yes	0.795962600037456	0	617890	251
1207.87109375	2	taste	foodImageDisplay	4	186	6	foodImage.58	FOODEEG_Images\0605.jpg	NY	Right	Yes	0.795962600037456	0	618431	252
1209.935546875	0.795962600037456	taste	choicePhaseStart	4	186	6	foodImage.58	FOODEEG_Images\0605.jpg	NY	Right	Yes	0.795962600037456	0	619488	253
1210.72265625	0	taste	response	4	186	6	foodImage.58	FOODEEG_Images\0605.jpg	NY	Right	Yes	0.795962600037456	0	619891	235
1211.771484375	1	decision	trialStart	4	187	7	foodImage.14	FOODEEG_Images\0188.jpg	NY	Right	Yes	0.654228799976408	0	620428	251
1212.830078125	2	decision	foodImageDisplay	4	187	7	foodImage.14	FOODEEG_Images\0188.jpg	NY	Right	Yes	0.654228799976408	0	620970	252
1214.892578125	0.654228799976408	decision	choicePhaseStart	4	187	7	foodImage.14	FOODEEG_Images\0188.jpg	NY	Right	Yes	0.654228799976408	0	622026	253
1215.537109375	0	decision	response	4	187	7	foodImage.14	FOODEEG_Images\0188.jpg	NY	Right	Yes	0.654228799976408	0	622356	235
1216.58203125	1	health	trialStart	4	188	8	foodImage.49	FOODEEG_Images\0515.jpg	YN	Left	Yes	0.563282100018114	0	622891	251
1217.623046875	2	health	foodImageDisplay	4	188	8	foodImage.49	FOODEEG_Images\0515.jpg	YN	Left	Yes	0.563282100018114	0	623424	252
1219.6875	0.563282100018114	health	choicePhaseStart	4	188	8	foodImage.49	FOODEEG_Images\0515.jpg	YN	Left	Yes	0.563282100018114	0	624481	253
1220.2421875	0	health	response	4	188	8	foodImage.49	FOODEEG_Images\0515.jpg	YN	Left	Yes	0.563282100018114	0	624765	234
1221.283203125	1	health	trialStart	4	189	9	foodImage.57	FOODEEG_Images\0587.jpg	YN	Left	Yes	1.14955669990741	0	625298	251
1222.333984375	2	health	foodImageDisplay	4	189	9	foodImage.57	FOODEEG_Images\0587.jpg	YN	Left	Yes	1.14955669990741	0	625836	252
1224.3984375	1.14955669990741	health	choicePhaseStart	4	189	9	foodImage.57	FOODEEG_Images\0587.jpg	YN	Left	Yes	1.14955669990741	0	626893	253
1225.537109375	0	health	response	4	189	9	foodImage.57	FOODEEG_Images\0587.jpg	YN	Left	Yes	1.14955669990741	0	627476	234
1226.58203125	1	taste	trialStart	4	190	10	foodImage.86	FOODEEG_Images\0844.jpg	YN	Left	Yes	0.763007099973038	0	628011	251
1227.642578125	2	taste	foodImageDisplay	4	190	10	foodImage.86	FOODEEG_Images\0844.jpg	YN	Left	Yes	0.763007099973038	0	628554	252
1229.712890625	0.763007099973038	taste	choicePhaseStart	4	190	10	foodImage.86	FOODEEG_Images\0844.jpg	YN	Left	Yes	0.763007099973038	0	629614	253
1230.46484375	0	taste	response	4	190	10	foodImage.86	FOODEEG_Images\0844.jpg	YN	Left	Yes	0.763007099973038	0	629999	234
1231.509765625	1	decision	trialStart	4	191	11	foodImage.108	FOODEEG_Images\0916.jpg	YN	Right	No	0.741635699989274	0	630534	251
1232.564453125	2	decision	foodImageDisplay	4	191	11	foodImage.108	FOODEEG_Images\0916.jpg	YN	Right	No	0.741635699989274	0	631074	252
1234.6328125	0.741635699989274	decision	choicePhaseStart	4	191	11	foodImage.108	FOODEEG_Images\0916.jpg	YN	Right	No	0.741635699989274	0	632133	253
1235.369140625	0	decision	response	4	191	11	foodImage.108	FOODEEG_Images\0916.jpg	YN	Right	No	0.741635699989274	0	632510	235
1236.412109375	1	health	trialStart	4	192	12	foodImage.89	FOODEEG_Images\0881.jpg	NY	Right	Yes	0.864644799847156	0	633044	251
1237.466796875	2	health	foodImageDisplay	4	192	12	foodImage.89	FOODEEG_Images\0881.jpg	NY	Right	Yes	0.864644799847156	0	633584	252
1239.529296875	0.864644799847156	health	choicePhaseStart	4	192	12	foodImage.89	FOODEEG_Images\0881.jpg	NY	Right	Yes	0.864644799847156	0	634640	253
1240.384765625	0	health	response	4	192	12	foodImage.89	FOODEEG_Images\0881.jpg	NY	Right	Yes	0.864644799847156	0	635078	235
1241.427734375	1	health	trialStart	4	193	13	foodImage.97	FOODEEG_Images\0905.jpg	NY	Left	No	1.25157250021584	0	635612	251
1242.46484375	2	health	foodImageDisplay	4	193	13	foodImage.97	FOODEEG_Images\0905.jpg	NY	Left	No	1.25157250021584	0	636143	252
1244.525390625	1.25157250021584	health	choicePhaseStart	4	193	13	foodImage.97	FOODEEG_Images\0905.jpg	NY	Left	No	1.25157250021584	0	637198	253
1245.76953125	0	health	response	4	193	13	foodImage.97	FOODEEG_Images\0905.jpg	NY	Left	No	1.25157250021584	0	637835	234
1246.8125	1	taste	trialStart	4	194	14	foodImage.6	FOODEEG_Images\0113.jpg	NY	Right	Yes	1.10866789985448	0	638369	251
