onset	duration	trial_type	event_type	block	trial_total	trial_in_block	food_image_code	food_image_path	button_position	resp_position	resp_choice	choice_rt	resp_too_slow	sample	trigger
309.908203125	2	n/a	blockStart	1	n/a	n/a	n/a	n/a	n/a	n/a	n/a	n/a	n/a	158674	250
311.947265625	1	health	trialStart	1	1	1	foodImage.30	FOODEEG_Images\0282.jpg	YN	Left	Yes	0.940941500011832	0	159718	251
312.9921875	2	health	foodImageDisplay	1	1	1	foodImage.30	FOODEEG_Images\0282.jpg	YN	Left	Yes	0.940941500011832	0	160253	252
315.056640625	0.940941500011832	health	choicePhaseStart	1	1	1	foodImage.30	FOODEEG_Images\0282.jpg	YN	Left	Yes	0.940941500011832	0	161310	253
315.98828125	0	health	response	1	1	1	foodImage.30	FOODEEG_Images\0282.jpg	YN	Left	Yes	0.940941500011832	0	161787	234
317.080078125	1	health	trialStart	1	2	2	foodImage.101	FOODEEG_Images\0909.jpg	NY	Left	No	1.75025779998396	0	162346	251
318.12109375	2	health	foodImageDisplay	1	2	2	foodImage.101	FOODEEG_Images\0909.jpg	NY	Left	No	1.75025779998396	0	162879	252
320.18359375	1.75025779998396	health	choicePhaseStart	1	2	2	foodImage.101	FOODEEG_Images\0909.jpg	NY	Left	No	1.75025779998396	0	163935	253
321.923828125	0	health	response	1	2	2	foodImage.101	FOODEEG_Images\0909.jpg	NY	Left	No	1.75025779998396	0	164826	234
322.986328125	1	health	trialStart	1	3	3	foodImage.26	FOODEEG_Images\0262.jpg	YN	Left	Yes	0.86489069997333	0	165370	251
324.037109375	2	health	foodImageDisplay	1	3	3	foodImage.26	FOODEEG_Images\0262.jpg	YN	Left	Yes	0.86489069997333	0	165908	252
326.099609375	0.86489069997333	health	choicePhaseStart	1	3	3	foodImage.26	FOODEEG_Images\0262.jpg	YN	Left	Yes	0.86489069997333	0	166964	253
326.95703125	0	health	response	1	3	3	foodImage.26	FOODEEG_Images\0262.jpg	YN	Left	Yes	0.86489069997333	0	167403	234
327.998046875	1	health	trialStart	1	4	4	foodImage.107	FOODEEG_Images\0915.jpg	NY	Left	No	1.71273330005351	0	167936	251
329.04296875	2	health	foodImageDisplay	1	4	4	foodImage.107	FOODEEG_Images\0915.jpg	NY	Left	No	1.71273330005351	0	168471	252
331.107421875	1.71273330005351	health	choicePhaseStart	1	4	4	foodImage.107	FOODEEG_Images\0915.jpg	NY	Left	No	1.71273330005351	0	169528	253
332.8125	0	health	response	1	4	4	foodImage.107	FOODEEG_Images\0915.jpg	NY	Left	No	1.71273330005351	0	170401	234
333.85546875	1	decision	trialStart	1	5	5	foodImage.28	FOODEEG_Images\0273.jpg	NY	Right	Yes	1.45422090007924	0	170935	251
334.900390625	2	decision	foodImageDisplay	1	5	5	foodImage.28	FOODEEG_Images\0273.jpg	NY	Right	Yes	1.45422090007924	0	171470	252
336.96484375	1.45422090007924	decision	choicePhaseStart	1	5	5	foodImage.28	FOODEEG_Images\0273.jpg	NY	Right	Yes	1.45422090007924	0	172527	253
338.412109375	0	decision	response	1	5	5	foodImage.28	FOODEEG_Images\0273.jpg	NY	Right	Yes	1.45422090007924	0	173268	235
339.4609375	1	taste	trialStart	1	6	6	foodImage.83	FOODEEG_Images\0827.jpg	NY	Right	Yes	1.55702189996373	0	173805	251
340.51953125	2	taste	foodImageDisplay	1	6	6	foodImage.83	FOODEEG_Images\0827.jpg	NY	Right	Yes	1.55702189996373	0	174347	252
342.58203125	1.55702189996373	taste	choicePhaseStart	1	6	6	foodImage.83	FOODEEG_Images\0827.jpg	NY	Right	Yes	1.55702189996373	0	175403	253
344.130859375	0	taste	response	1	6	6	foodImage.83	FOODEEG_Images\0827.jpg	NY	Right	Yes	1.55702189996373	0	176196	235
345.177734375	1	decision	trialStart	1	7	7	foodImage.6	FOODEEG_Images\0113.jpg	NY	Right	Yes	0.861944900010712	0	176732	251
346.220703125	2	decision	foodImageDisplay	1	7	7	foodImage.6	FOODEEG_Images\0113.jpg	NY	Right	Yes	0.861944900010712	0	177266	252
348.283203125	0.861944900010712	decision	choicePhaseStart	1	7	7	foodImage.6	FOODEEG_Images\0113.jpg	NY	Right	Yes	0.861944900010712	0	178322	253
349.138671875	0	decision	response	1	7	7	foodImage.6	FOODEEG_Images\0113.jpg	NY	Right	Yes	0.861944900010712	0	178760	235
350.181640625	1	taste	trialStart	1	8	8	foodImage.28	FOODEEG_Images\0273.jpg	YN	Right	No	1.36550089996308	0	179294	251
351.22265625	2	taste	foodImageDisplay	1	8	8	foodImage.28	FOODEEG_Images\0273.jpg	YN	Right	No	1.36550089996308	0	179827	252
353.28515625	1.36550089996308	taste	choicePhaseStart	1	8	8	foodImage.28	FOODEEG_Images\0273.jpg	YN	Right	No	1.36550089996308	0	180883	253
354.642578125	0	taste	response	1	8	8	foodImage.28	FOODEEG_Images\0273.jpg	YN	Right	No	1.36550089996308	0	181578	235
355.685546875	1	decision	trialStart	1	9	9	foodImage.96	FOODEEG_Images\0904.jpg	NY	Left	No	1.06389460002538	0	182112	251
356.72265625	2	decision	foodImageDisplay	1	9	9	foodImage.96	FOODEEG_Images\0904.jpg	NY	Left	No	1.06389460002538	0	182643	252
358.787109375	1.06389460002538	decision	choicePhaseStart	1	9	9	foodImage.96	FOODEEG_Images\0904.jpg	NY	Left	No	1.06389460002538	0	183700	253
359.84375	0	decision	response	1	9	9	foodImage.96	FOODEEG_Images\0904.jpg	NY	Left	No	1.06389460002538	0	184241	234
360.884765625	1	health	trialStart	1	10	10	foodImage.73	FOODEEG_Images\0717.jpg	YN	Left	Yes	0.973732100101188	0	184774	251
361.94140625	2	health	foodImageDisplay	1	10	10	foodImage.73	FOODEEG_Images\0717.jpg	YN	Left	Yes	0.973732100101188	0	185315	252
364.005859375	0.973732100101188	health	choicePhaseStart	1	10	10	foodImage.73	FOODEEG_Images\0717.jpg	YN	Left	Yes	0.973732100101188	0	186372	253
364.970703125	0	health	response	1	10	10	foodImage.73	FOODEEG_Images\0717.jpg	YN	Left	Yes	0.973732100101188	0	186866	234
366.013671875	1	taste	trialStart	1	11	11	foodImage.11	FOODEEG_Images\0180.jpg	NY	Right	Yes	0.940961400046945	0	187400	251
367.056640625	2	taste	foodImageDisplay	1	11	11	foodImage.11	FOODEEG_Images\0180.jpg	NY	Right	Yes	0.940961400046945	0	187934	252
369.119140625	0.940961400046945	taste	choicePhaseStart	1	11	11	foodImage.11	FOODEEG_Images\0180.jpg	NY	Right	Yes	0.940961400046945	0	188990	253
370.05078125	0	taste	response	1	11	11	foodImage.11	FOODEEG_Images\0180.jpg	NY	Right	Yes	0.940961400046945	0	189467	235
371.09375	1	taste	trialStart	1	12	12	foodImage.15	FOODEEG_Images\0189.jpg	NY	Right	Yes	0.757184999994934	0	190001	251
372.150390625	2	taste	foodImageDisplay	1	12	12	foodImage.15	FOODEEG_Images\0189.jpg	NY	Right	Yes	0.757184999994934	0	190542	252
374.212890625	0.757184999994934	taste	choicePhaseStart	1	12	12	foodImage.15	FOODEEG_Images\0189.jpg	NY	Right	Yes	0.757184999994934	0	191598	253
374.962890625	0	taste	response	1	12	12	foodImage.15	FOODEEG_Images\0189.jpg	NY	Right	Yes	0.757184999994934	0	191982	235
376.001953125	1	decision	trialStart	1	13	13	foodImage.52	FOODEEG_Images\0539.jpg	NY	Right	Yes	1.2942910999991	0	192514	251
377.060546875	2	decision	foodImageDisplay	1	13	13	foodImage.52	FOODEEG_Images\0539.jpg	NY	Right	Yes	1.2942910999991	0	193056	252
379.123046875	1.2942910999991	decision	choicePhaseStart	1	13	13	foodImage.52	FOODEEG_Images\0539.jpg	NY	Right	Yes	1.2942910999991	0	194112	253
380.41015625	0	decision	response	1	13	13	foodImage.52	FOODEEG_Images\0539.jpg	NY	Right	Yes	1.2942910999991	0	194771	235
381.451171875	1	decision	trialStart	1	14	14	foodImage.11	FOODEEG_Images\0180.jpg	YN	Left	Yes	4.11076900002081	0	195304	251
382.4921875	2	decision	foodImageDisplay	1	14	14	foodImage.11	FOODEEG_Images\0180.jpg	YN	Left	Yes	4.11076900002081	0	195837	252
384.5546875	4.11076900002081	decision	choicePhaseStart	1	14	14	foodImage.11	FOODEEG_Images\0180.jpg	YN	Left	Yes	4.11076900002081	0	196893	253
388.658203125	0	decision	response	1	14	14	foodImage.11	FOODEEG_Images\0180.jpg	YN	Left	Yes	4.11076900002081	0	198994	234
389.69921875	1	taste	trialStart	1	15	15	foodImage.66	FOODEEG_Images\0676.jpg	NY	Right	Yes	1.19156849989668	0	199527	251
390.740234375	2	taste	foodImageDisplay	1	15	15	foodImage.66	FOODEEG_Images\0676.jpg	NY	Right	Yes	1.19156849989668	0	200060	252
392.802734375	1.19156849989668	taste	choicePhaseStart	1	15	15	foodImage.66	FOODEEG_Images\0676.jpg	NY	Right	Yes	1.19156849989668	0	201116	253
393.984375	0	taste	response	1	15	15	foodImage.66	FOODEEG_Images\0676.jpg	NY	Right	Yes	1.19156849989668	0	201721	235
395.02734375	1	decision	trialStart	1	16	16	foodImage.46	FOODEEG_Images\0479.jpg	NY	Left	No	0.92014309996739	0	202255	251
396.0859375	2	decision	foodImageDisplay	1	16	16	foodImage.46	FOODEEG_Images\0479.jpg	NY	Left	No	0.92014309996739	0	202797	252
398.15234375	0.92014309996739	decision	choicePhaseStart	1	16	16	foodImage.46	FOODEEG_Images\0479.jpg	NY	Left	No	0.92014309996739	0	203855	253
399.064453125	0	decision	response	1	16	16	foodImage.46	FOODEEG_Images\0479.jpg	NY	Left	No	0.92014309996739	0	204322	234
400.10546875	1	health	trialStart	1	17	17	foodImage.120	FOODEEG_Images\0928.jpg	NY	Left	No	1.53791169996839	0	204855	251
401.146484375	2	health	foodImageDisplay	1	17	17	foodImage.120	FOODEEG_Images\0928.jpg	NY	Left	No	1.53791169996839	0	205388	252
403.208984375	1.53791169996839	health	choicePhaseStart	1	17	17	foodImage.120	FOODEEG_Images\0928.jpg	NY	Left	No	1.53791169996839	0	206444	253
404.73828125	0	health	response	1	17	17	foodImage.120	FOODEEG_Images\0928.jpg	NY	Left	No	1.53791169996839	0	207227	234
405.78125	1	decision	trialStart	1	18	18	foodImage.119	FOODEEG_Images\0927.jpg	NY	Left	No	1.08750659995712	0	207761	251
406.8203125	2	decision	foodImageDisplay	1	18	18	foodImage.119	FOODEEG_Images\0927.jpg	NY	Left	No	1.08750659995712	0	208293	252
408.8828125	1.08750659995712	decision	choicePhaseStart	1	18	18	foodImage.119	FOODEEG_Images\0927.jpg	NY	Left	No	1.08750659995712	0	209349	253
409.9609375	0	decision	response	1	18	18	foodImage.119	FOODEEG_Images\0927.jpg	NY	Left	No	1.08750659995712	0	209901	234
411.001953125	1	health	trialStart	1	19	19	foodImage.93	FOODEEG_Images\0901.jpg	NY	Right	Yes	1.33092279999983	0	210434	251
412.041015625	2	health	foodImageDisplay	1	19	19	foodImage.93	FOODEEG_Images\0901.jpg	NY	Right	Yes	1.33092279999983	0	210966	252
414.103515625	1.33092279999983	health	choicePhaseStart	1	19	19	foodImage.93	FOODEEG_Images\0901.jpg	NY	Right	Yes	1.33092279999983	0	212022	253
415.423828125	0	health	response	1	19	19	foodImage.93	FOODEEG_Images\0901.jpg	NY	Right	Yes	1.33092279999983	0	212698	235
416.466796875	1	decision	trialStart	1	20	20	foodImage.13	FOODEEG_Images\0183.jpg	NY	Left	No	1.23624620004557	0	213232	251
417.51171875	2	decision	foodImageDisplay	1	20	20	foodImage.13	FOODEEG_Images\0183.jpg	NY	Left	No	1.23624620004557	0	213767	252
419.57421875	1.23624620004557	decision	choicePhaseStart	1	20	20	foodImage.13	FOODEEG_Images\0183.jpg	NY	Left	No	1.23624620004557	0	214823	253
420.80078125	0	decision	response	1	20	20	foodImage.13	FOODEEG_Images\0183.jpg	NY	Left	No	1.23624620004557	0	215451	234
421.841796875	1	health	trialStart	1	21	21	foodImage.49	FOODEEG_Images\0515.jpg	YN	Left	Yes	0.991904200054705	0	215984	251
422.8828125	2	health	foodImageDisplay	1	21	21	foodImage.49	FOODEEG_Images\0515.jpg	YN	Left	Yes	0.991904200054705	0	216517	252
424.951171875	0.991904200054705	health	choicePhaseStart	1	21	21	foodImage.49	FOODEEG_Images\0515.jpg	YN	Left	Yes	0.991904200054705	0	217576	253
425.935546875	0	health	response	1	21	21	foodImage.49	FOODEEG_Images\0515.jpg	YN	Left	Yes	0.991904200054705	0	218080	234
426.9765625	1	decision	trialStart	1	22	22	foodImage.27	FOODEEG_Images\0263.jpg	NY	Right	Yes	1.09513049991801	0	218613	251
428.01953125	2	decision	foodImageDisplay	1	22	22	foodImage.27	FOODEEG_Images\0263.jpg	NY	Right	Yes	1.09513049991801	0	219147	252
430.08203125	1.09513049991801	decision	choicePhaseStart	1	22	22	foodImage.27	FOODEEG_Images\0263.jpg	NY	Right	Yes	1.09513049991801	0	220203	253
431.16796875	0	decision	response	1	22	22	foodImage.27	FOODEEG_Images\0263.jpg	NY	Right	Yes	1.09513049991801	0	220759	235
432.208984375	1	health	trialStart	1	23	23	foodImage.3	FOODEEG_Images\0046.jpg	YN	Right	No	0.86995449999813	0	221292	251
433.25	2	health	foodImageDisplay	1	23	23	foodImage.3	FOODEEG_Images\0046.jpg	YN	Right	No	0.86995449999813	0	221825	252
435.3125	0.86995449999813	health	choicePhaseStart	1	23	23	foodImage.3	FOODEEG_Images\0046.jpg	YN	Right	No	0.86995449999813	0	222881	253
436.17578125	0	health	response	1	23	23	foodImage.3	FOODEEG_Images\0046.jpg	YN	Right	No	0.86995449999813	0	223323	235
437.21484375	1	taste	trialStart	1	24	24	foodImage.4	FOODEEG_Images\0065.jpg	YN	Left	Yes	0.987232099985704	0	223855	251
438.271484375	2	taste	foodImageDisplay	1	24	24	foodImage.4	FOODEEG_Images\0065.jpg	YN	Left	Yes	0.987232099985704	0	224396	252
440.33203125	0.987232099985704	taste	choicePhaseStart	1	24	24	foodImage.4	FOODEEG_Images\0065.jpg	YN	Left	Yes	0.987232099985704	0	225451	253
441.310546875	0	taste	response	1	24	24	foodImage.4	FOODEEG_Images\0065.jpg	YN	Left	Yes	0.987232099985704	0	225952	234
442.353515625	1	taste	trialStart	1	25	25	foodImage.77	FOODEEG_Images\0771.jpg	YN	Left	Yes	0.923845799989067	0	226486	251
443.3984375	2	taste	foodImageDisplay	1	25	25	foodImage.77	FOODEEG_Images\0771.jpg	YN	Left	Yes	0.923845799989067	0	227021	252
445.4609375	0.923845799989067	taste	choicePhaseStart	1	25	25	foodImage.77	FOODEEG_Images\0771.jpg	YN	Left	Yes	0.923845799989067	0	228077	253
446.375	0	taste	response	1	25	25	foodImage.77	FOODEEG_Images\0771.jpg	YN	Left	Yes	0.923845799989067	0	228545	234
447.416015625	1	taste	trialStart	1	26	26	foodImage.119	FOODEEG_Images\0927.jpg	NY	Right	Yes	1.17019390000496	0	229078	251
448.455078125	2	taste	foodImageDisplay	1	26	26	foodImage.119	FOODEEG_Images\0927.jpg	NY	Right	Yes	1.17019390000496	0	229610	252
450.517578125	1.17019390000496	taste	choicePhaseStart	1	26	26	foodImage.119	FOODEEG_Images\0927.jpg	NY	Right	Yes	1.17019390000496	0	230666	253
451.6796875	0	taste	response	1	26	26	foodImage.119	FOODEEG_Images\0927.jpg	NY	Right	Yes	1.17019390000496	0	231261	235
452.72265625	1	taste	trialStart	1	27	27	foodImage.20	FOODEEG_Images\0226.jpg	NY	Left	No	0.829969699960202	0	231795	251
453.763671875	2	taste	foodImageDisplay	1	27	27	foodImage.20	FOODEEG_Images\0226.jpg	NY	Left	No	0.829969699960202	0	232328	252
455.826171875	0.829969699960202	taste	choicePhaseStart	1	27	27	foodImage.20	FOODEEG_Images\0226.jpg	NY	Left	No	0.829969699960202	0	233384	253
456.646484375	0	taste	response	1	27	27	foodImage.20	FOODEEG_Images\0226.jpg	NY	Left	No	0.829969699960202	0	233804	234
457.6875	1	decision	trialStart	1	28	28	foodImage.104	FOODEEG_Images\0912.jpg	NY	Right	Yes	1.27674060000572	0	234337	251
458.724609375	2	decision	foodImageDisplay	1	28	28	foodImage.104	FOODEEG_Images\0912.jpg	NY	Right	Yes	1.27674060000572	0	234868	252
460.787109375	1.27674060000572	decision	choicePhaseStart	1	28	28	foodImage.104	FOODEEG_Images\0912.jpg	NY	Right	Yes	1.27674060000572	0	235924	253
462.0546875	0	decision	response	1	28	28	foodImage.104	FOODEEG_Images\0912.jpg	NY	Right	Yes	1.27674060000572	0	236573	235
463.099609375	1	decision	trialStart	1	29	29	foodImage.60	FOODEEG_Images\0614.jpg	NY	Right	Yes	1.02599170000758	0	237108	251
464.158203125	2	decision	foodImageDisplay	1	29	29	foodImage.60	FOODEEG_Images\0614.jpg	NY	Right	Yes	1.02599170000758	0	237650	252
466.220703125	1.02599170000758	decision	choicePhaseStart	1	29	29	foodImage.60	FOODEEG_Images\0614.jpg	NY	Right	Yes	1.02599170000758	0	238706	253
467.23828125	0	decision	response	1	29	29	foodImage.60	FOODEEG_Images\0614.jpg	NY	Right	Yes	1.02599170000758	0	239227	235
468.28125	1	decision	trialStart	1	30	30	foodImage.58	FOODEEG_Images\0605.jpg	YN	Left	Yes	1.01468110003043	0	239761	251
469.3359375	2	decision	foodImageDisplay	1	30	30	foodImage.58	FOODEEG_Images\0605.jpg	YN	Left	Yes	1.01468110003043	0	240301	252
471.400390625	1.01468110003043	decision	choicePhaseStart	1	30	30	foodImage.58	FOODEEG_Images\0605.jpg	YN	Left	Yes	1.01468110003043	0	241358	253
472.40625	0	decision	response	1	30	30	foodImage.58	FOODEEG_Images\0605.jpg	YN	Left	Yes	1.01468110003043	0	241873	234
473.44921875	1	taste	trialStart	1	31	31	foodImage.94	FOODEEG_Images\0902.jpg	YN	Left	Yes	1.73621189990081	0	242407	251
474.494140625	2	taste	foodImageDisplay	1	31	31	foodImage.94	FOODEEG_Images\0902.jpg	YN	Left	Yes	1.73621189990081	0	242942	252
476.556640625	1.73621189990081	taste	choicePhaseStart	1	31	31	foodImage.94	FOODEEG_Images\0902.jpg	YN	Left	Yes	1.73621189990081	0	243998	253
478.28515625	0	taste	response	1	31	31	foodImage.94	FOODEEG_Images\0902.jpg	YN	Left	Yes	1.73621189990081	0	244883	234
479.328125	1	decision	trialStart	1	32	32	foodImage.24	FOODEEG_Images\0250.jpg	NY	Right	Yes	0.935315499897115	0	245417	251
480.369140625	2	decision	foodImageDisplay	1	32	32	foodImage.24	FOODEEG_Images\0250.jpg	NY	Right	Yes	0.935315499897115	0	245950	252
482.431640625	0.935315499897115	decision	choicePhaseStart	1	32	32	foodImage.24	FOODEEG_Images\0250.jpg	NY	Right	Yes	0.935315499897115	0	247006	253
483.357421875	0	decision	response	1	32	32	foodImage.24	FOODEEG_Images\0250.jpg	NY	Right	Yes	0.935315499897115	0	247480	235
484.40234375	1	taste	trialStart	1	33	33	foodImage.60	FOODEEG_Images\0614.jpg	NY	Right	Yes	1.16269989998545	0	248015	251
485.478515625	2	taste	foodImageDisplay	1	33	33	foodImage.60	FOODEEG_Images\0614.jpg	NY	Right	Yes	1.16269989998545	0	248566	252
487.541015625	1.16269989998545	taste	choicePhaseStart	1	33	33	foodImage.60	FOODEEG_Images\0614.jpg	NY	Right	Yes	1.16269989998545	0	249622	253
488.693359375	0	taste	response	1	33	33	foodImage.60	FOODEEG_Images\0614.jpg	NY	Right	Yes	1.16269989998545	0	250212	235
489.736328125	1	decision	trialStart	1	34	34	foodImage.57	FOODEEG_Images\0587.jpg	YN	Left	Yes	0.782128500053659	0	250746	251
490.77734375	2	decision	foodImageDisplay	1	34	34	foodImage.57	FOODEEG_Images\0587.jpg	YN	Left	Yes	0.782128500053659	0	251279	252
492.83984375	0.782128500053659	decision	choicePhaseStart	1	34	34	foodImage.57	FOODEEG_Images\0587.jpg	YN	Left	Yes	0.782128500053659	0	252335	253
493.61328125	0	decision	response	1	34	34	foodImage.57	FOODEEG_Images\0587.jpg	YN	Left	Yes	0.782128500053659	0	252731	234
494.654296875	1	decision	trialStart	1	35	35	foodImage.105	FOODEEG_Images\0913.jpg	YN	Left	Yes	0.698915799963288	0	253264	251
495.693359375	2	decision	foodImageDisplay	1	35	35	foodImage.105	FOODEEG_Images\0913.jpg	YN	Left	Yes	0.698915799963288	0	253796	252
497.755859375	0.698915799963288	decision	choicePhaseStart	1	35	35	foodImage.105	FOODEEG_Images\0913.jpg	YN	Left	Yes	0.698915799963288	0	254852	253
498.4453125	0	decision	response	1	35	35	foodImage.105	FOODEEG_Images\0913.jpg	YN	Left	Yes	0.698915799963288	0	255205	234
499.48828125	1	taste	trialStart	1	36	36	foodImage.97	FOODEEG_Images\0905.jpg	NY	Right	Yes	0.898290100041777	0	255739	251
500.525390625	2	taste	foodImageDisplay	1	36	36	foodImage.97	FOODEEG_Images\0905.jpg	NY	Right	Yes	0.898290100041777	0	256270	252
502.587890625	0.898290100041777	taste	choicePhaseStart	1	36	36	foodImage.97	FOODEEG_Images\0905.jpg	NY	Right	Yes	0.898290100041777	0	257326	253
503.4765625	0	taste	response	1	36	36	foodImage.97	FOODEEG_Images\0905.jpg	NY	Right	Yes	0.898290100041777	0	257781	235
504.51953125	1	decision	trialStart	1	37	37	foodImage.59	FOODEEG_Images\0607.jpg	YN	Left	Yes	0.704564500018023	0	258315	251
505.56640625	2	decision	foodImageDisplay	1	37	37	foodImage.59	FOODEEG_Images\0607.jpg	YN	Left	Yes	0.704564500018023	0	258851	252
507.62890625	0.704564500018023	decision	choicePhaseStart	1	37	37	foodImage.59	FOODEEG_Images\0607.jpg	YN	Left	Yes	0.704564500018023	0	259907	253
508.32421875	0	decision	response	1	37	37	foodImage.59	FOODEEG_Images\0607.jpg	YN	Left	Yes	0.704564500018023	0	260263	234
509.365234375	1	taste	trialStart	1	38	38	foodImage.17	FOODEEG_Images\0199.jpg	YN	Left	Yes	0.752420100034215	0	260796	251
510.40625	2	taste	foodImageDisplay	1	38	38	foodImage.17	FOODEEG_Images\0199.jpg	YN	Left	Yes	0.752420100034215	0	261329	252
512.46875	0.752420100034215	taste	choicePhaseStart	1	38	38	foodImage.17	FOODEEG_Images\0199.jpg	YN	Left	Yes	0.752420100034215	0	262385	253
513.212890625	0	taste	response	1	38	38	foodImage.17	FOODEEG_Images\0199.jpg	YN	Left	Yes	0.752420100034215	0	262766	234
514.255859375	1	decision	trialStart	1	39	39	foodImage.61	FOODEEG_Images\0640.jpg	YN	Left	Yes	0.798950299969874	0	263300	251
515.296875	2	decision	foodImageDisplay	1	39	39	foodImage.61	FOODEEG_Images\0640.jpg	YN	Left	Yes	0.798950299969874	0	263833	252
517.359375	0.798950299969874	decision	choicePhaseStart	1	39	39	foodImage.61	FOODEEG_Images\0640.jpg	YN	Left	Yes	0.798950299969874	0	264889	253
518.150390625	0	decision	response	1	39	39	foodImage.61	FOODEEG_Images\0640.jpg	YN	Left	Yes	0.798950299969874	0	265294	234
519.19140625	1	decision	trialStart	1	40	40	foodImage.22	FOODEEG_Images\0236.jpg	NY	Right	Yes	0.919292399892583	0	265827	251
520.232421875	2	decision	foodImageDisplay	1	40	40	foodImage.22	FOODEEG_Images\0236.jpg	NY	Right	Yes	0.919292399892583	0	266360	252
522.294921875	0.919292399892583	decision	choicePhaseStart	1	40	40	foodImage.22	FOODEEG_Images\0236.jpg	NY	Right	Yes	0.919292399892583	0	267416	253
523.205078125	0	decision	response	1	40	40	foodImage.22	FOODEEG_Images\0236.jpg	NY	Right	Yes	0.919292399892583	0	267882	235
524.244140625	1	taste	trialStart	1	41	41	foodImage.72	FOODEEG_Images\0714.jpg	NY	Left	No	0.825158599996939	0	268414	251
525.28515625	2	taste	foodImageDisplay	1	41	41	foodImage.72	FOODEEG_Images\0714.jpg	NY	Left	No	0.825158599996939	0	268947	252
527.34765625	0.825158599996939	taste	choicePhaseStart	1	41	41	foodImage.72	FOODEEG_Images\0714.jpg	NY	Left	No	0.825158599996939	0	270003	253
528.1640625	0	taste	response	1	41	41	foodImage.72	FOODEEG_Images\0714.jpg	NY	Left	No	0.825158599996939	0	270421	234
529.20703125	1	taste	trialStart	1	42	42	foodImage.27	FOODEEG_Images\0263.jpg	YN	Left	Yes	0.982566299964674	0	270955	251
530.248046875	2	taste	foodImageDisplay	1	42	42	foodImage.27	FOODEEG_Images\0263.jpg	YN	Left	Yes	0.982566299964674	0	271488	252
532.310546875	0.982566299964674	taste	choicePhaseStart	1	42	42	foodImage.27	FOODEEG_Images\0263.jpg	YN	Left	Yes	0.982566299964674	0	272544	253
533.283203125	0	taste	response	1	42	42	foodImage.27	FOODEEG_Images\0263.jpg	YN	Left	Yes	0.982566299964674	0	273042	234
534.328125	1	decision	trialStart	1	43	43	foodImage.83	FOODEEG_Images\0827.jpg	NY	Right	Yes	1.05843209999148	0	273577	251
535.38671875	2	decision	foodImageDisplay	1	43	43	foodImage.83	FOODEEG_Images\0827.jpg	NY	Right	Yes	1.05843209999148	0	274119	252
537.44921875	1.05843209999148	decision	choicePhaseStart	1	43	43	foodImage.83	FOODEEG_Images\0827.jpg	NY	Right	Yes	1.05843209999148	0	275175	253
538.5	0	decision	response	1	43	43	foodImage.83	FOODEEG_Images\0827.jpg	NY	Right	Yes	1.05843209999148	0	275713	235
539.54296875	1	taste	trialStart	1	44	44	foodImage.9	FOODEEG_Images\0138.jpg	NY	Right	Yes	0.807021000073291	0	276247	251
540.599609375	2	taste	foodImageDisplay	1	44	44	foodImage.9	FOODEEG_Images\0138.jpg	NY	Right	Yes	0.807021000073291	0	276788	252
542.662109375	0.807021000073291	taste	choicePhaseStart	1	44	44	foodImage.9	FOODEEG_Images\0138.jpg	NY	Right	Yes	0.807021000073291	0	277844	253
543.458984375	0	taste	response	1	44	44	foodImage.9	FOODEEG_Images\0138.jpg	NY	Right	Yes	0.807021000073291	0	278252	235
544.501953125	1	taste	trialStart	1	45	45	foodImage.70	FOODEEG_Images\0705.jpg	NY	Right	Yes	0.613357600057498	0	278786	251
545.560546875	2	taste	foodImageDisplay	1	45	45	foodImage.70	FOODEEG_Images\0705.jpg	NY	Right	Yes	0.613357600057498	0	279328	252
547.623046875	0.613357600057498	taste	choicePhaseStart	1	45	45	foodImage.70	FOODEEG_Images\0705.jpg	NY	Right	Yes	0.613357600057498	0	280384	253
548.2265625	0	taste	response	1	45	45	foodImage.70	FOODEEG_Images\0705.jpg	NY	Right	Yes	0.613357600057498	0	280693	235
549.267578125	1	decision	trialStart	1	46	46	foodImage.33	FOODEEG_Images\0329.jpg	NY	Right	Yes	0.629547800053842	0	281226	251
550.3125	2	decision	foodImageDisplay	1	46	46	foodImage.33	FOODEEG_Images\0329.jpg	NY	Right	Yes	0.629547800053842	0	281761	252
552.375	0.629547800053842	decision	choicePhaseStart	1	46	46	foodImage.33	FOODEEG_Images\0329.jpg	NY	Right	Yes	0.629547800053842	0	282817	253
552.99609375	0	decision	response	1	46	46	foodImage.33	FOODEEG_Images\0329.jpg	NY	Right	Yes	0.629547800053842	0	283135	235
554.0390625	1	decision	trialStart	1	47	47	foodImage.15	FOODEEG_Images\0189.jpg	NY	Right	Yes	0.587831999990158	0	283669	251
555.095703125	2	decision	foodImageDisplay	1	47	47	foodImage.15	FOODEEG_Images\0189.jpg	NY	Right	Yes	0.587831999990158	0	284210	252
557.16015625	0.587831999990158	decision	choicePhaseStart	1	47	47	foodImage.15	FOODEEG_Images\0189.jpg	NY	Right	Yes	0.587831999990158	0	285267	253
557.73828125	0	decision	response	1	47	47	foodImage.15	FOODEEG_Images\0189.jpg	NY	Right	Yes	0.587831999990158	0	285563	235
558.78125	1	health	trialStart	1	48	48	foodImage.17	FOODEEG_Images\0199.jpg	NY	Right	Yes	0.681762099964544	0	286097	251
559.826171875	2	health	foodImageDisplay	1	48	48	foodImage.17	FOODEEG_Images\0199.jpg	NY	Right	Yes	0.681762099964544	0	286632	252
561.890625	0.681762099964544	health	choicePhaseStart	1	48	48	foodImage.17	FOODEEG_Images\0199.jpg	NY	Right	Yes	0.681762099964544	0	287689	253
562.5625	0	health	response	1	48	48	foodImage.17	FOODEEG_Images\0199.jpg	NY	Right	Yes	0.681762099964544	0	288033	235
563.603515625	1	taste	trialStart	1	49	49	foodImage.106	FOODEEG_Images\0914.jpg	NY	Left	No	1.39685789996292	0	288566	251
564.642578125	2	taste	foodImageDisplay	1	49	49	foodImage.106	FOODEEG_Images\0914.jpg	NY	Left	No	1.39685789996292	0	289098	252
566.705078125	1.39685789996292	taste	choicePhaseStart	1	49	49	foodImage.106	FOODEEG_Images\0914.jpg	NY	Left	No	1.39685789996292	0	290154	253
568.091796875	0	taste	response	1	49	49	foodImage.106	FOODEEG_Images\0914.jpg	NY	Left	No	1.39685789996292	0	290864	234
569.1328125	1	health	trialStart	1	50	50	foodImage.84	FOODEEG_Images\0830.jpg	YN	Left	Yes	0.751764600048773	0	291397	251
570.189453125	2	health	foodImageDisplay	1	50	50	foodImage.84	FOODEEG_Images\0830.jpg	YN	Left	Yes	0.751764600048773	0	291938	252
572.251953125	0.751764600048773	health	choicePhaseStart	1	50	50	foodImage.84	FOODEEG_Images\0830.jpg	YN	Left	Yes	0.751764600048773	0	292994	253
572.994140625	0	health	response	1	50	50	foodImage.84	FOODEEG_Images\0830.jpg	YN	Left	Yes	0.751764600048773	0	293374	234
574.03515625	1	health	trialStart	1	51	51	foodImage.50	FOODEEG_Images\0529.jpg	YN	Left	Yes	0.93739460001234	0	293907	251
575.091796875	2	health	foodImageDisplay	1	51	51	foodImage.50	FOODEEG_Images\0529.jpg	YN	Left	Yes	0.93739460001234	0	294448	252
577.154296875	0.93739460001234	health	choicePhaseStart	1	51	51	foodImage.50	FOODEEG_Images\0529.jpg	YN	Left	Yes	0.93739460001234	0	295504	253
578.08203125	0	health	response	1	51	51	foodImage.50	FOODEEG_Images\0529.jpg	YN	Left	Yes	0.93739460001234	0	295979	234
579.125	1	health	trialStart	1	52	52	foodImage.28	FOODEEG_Images\0273.jpg	YN	Left	Yes	0.650236199959181	0	296513	251
580.166015625	2	health	foodImageDisplay	1	52	52	foodImage.28	FOODEEG_Images\0273.jpg	YN	Left	Yes	0.650236199959181	0	297046	252
582.232421875	0.650236199959181	health	choicePhaseStart	1	52	52	foodImage.28	FOODEEG_Images\0273.jpg	YN	Left	Yes	0.650236199959181	0	298104	253
582.873046875	0	health	response	1	52	52	foodImage.28	FOODEEG_Images\0273.jpg	YN	Left	Yes	0.650236199959181	0	298432	234
583.91796875	1	taste	trialStart	1	53	53	foodImage.24	FOODEEG_Images\0250.jpg	YN	Right	No	1.0683678999776	0	298967	251
584.958984375	2	taste	foodImageDisplay	1	53	53	foodImage.24	FOODEEG_Images\0250.jpg	YN	Right	No	1.0683678999776	0	299500	252
587.021484375	1.0683678999776	taste	choicePhaseStart	1	53	53	foodImage.24	FOODEEG_Images\0250.jpg	YN	Right	No	1.0683678999776	0	300556	253
588.08203125	0	taste	response	1	53	53	foodImage.24	FOODEEG_Images\0250.jpg	YN	Right	No	1.0683678999776	0	301099	235
589.125	1	health	trialStart	1	54	54	foodImage.96	FOODEEG_Images\0904.jpg	NY	Right	Yes	0.953450099914335	0	301633	251
590.162109375	2	health	foodImageDisplay	1	54	54	foodImage.96	FOODEEG_Images\0904.jpg	NY	Right	Yes	0.953450099914335	0	302164	252
592.22265625	0.953450099914335	health	choicePhaseStart	1	54	54	foodImage.96	FOODEEG_Images\0904.jpg	NY	Right	Yes	0.953450099914335	0	303219	253
593.169921875	0	health	response	1	54	54	foodImage.96	FOODEEG_Images\0904.jpg	NY	Right	Yes	0.953450099914335	0	303704	235
594.2109375	1	taste	trialStart	1	55	55	foodImage.93	FOODEEG_Images\0901.jpg	YN	Left	Yes	1.48180880001746	0	304237	251
595.248046875	2	taste	foodImageDisplay	1	55	55	foodImage.93	FOODEEG_Images\0901.jpg	YN	Left	Yes	1.48180880001746	0	304768	252
597.310546875	1.48180880001746	taste	choicePhaseStart	1	55	55	foodImage.93	FOODEEG_Images\0901.jpg	YN	Left	Yes	1.48180880001746	0	305824	253
598.78515625	0	taste	response	1	55	55	foodImage.93	FOODEEG_Images\0901.jpg	YN	Left	Yes	1.48180880001746	0	306579	234
599.826171875	1	taste	trialStart	1	56	56	foodImage.80	FOODEEG_Images\0796.jpg	YN	Left	Yes	1.14453529997263	0	307112	251
600.880859375	2	taste	foodImageDisplay	1	56	56	foodImage.80	FOODEEG_Images\0796.jpg	YN	Left	Yes	1.14453529997263	0	307652	252
602.943359375	1.14453529997263	taste	choicePhaseStart	1	56	56	foodImage.80	FOODEEG_Images\0796.jpg	YN	Left	Yes	1.14453529997263	0	308708	253
604.08203125	0	taste	response	1	56	56	foodImage.80	FOODEEG_Images\0796.jpg	YN	Left	Yes	1.14453529997263	0	309291	234
605.12109375	1	decision	trialStart	1	57	57	foodImage.48	FOODEEG_Images\0494.jpg	YN	Right	No	1.06313300004695	0	309823	251
606.1640625	2	decision	foodImageDisplay	1	57	57	foodImage.48	FOODEEG_Images\0494.jpg	YN	Right	No	1.06313300004695	0	310357	252
608.2265625	1.06313300004695	decision	choicePhaseStart	1	57	57	foodImage.48	FOODEEG_Images\0494.jpg	YN	Right	No	1.06313300004695	0	311413	253
609.28125	0	decision	response	1	57	57	foodImage.48	FOODEEG_Images\0494.jpg	YN	Right	No	1.06313300004695	0	311953	235
610.322265625	1	health	trialStart	1	58	58	foodImage.104	FOODEEG_Images\0912.jpg	NY	Left	No	1.02027480001561	0	312486	251
611.359375	2	health	foodImageDisplay	1	58	58	foodImage.104	FOODEEG_Images\0912.jpg	NY	Left	No	1.02027480001561	0	313017	252
613.427734375	1.02027480001561	health	choicePhaseStart	1	58	58	foodImage.104	FOODEEG_Images\0912.jpg	NY	Left	No	1.02027480001561	0	314076	253
614.44140625	0	health	response	1	58	58	foodImage.104	FOODEEG_Images\0912.jpg	NY	Left	No	1.02027480001561	0	314595	234
615.484375	1	health	trialStart	1	59	59	foodImage.64	FOODEEG_Images\0647.jpg	YN	Left	Yes	1.92630859999917	0	315129	251
616.541015625	2	health	foodImageDisplay	1	59	59	foodImage.64	FOODEEG_Images\0647.jpg	YN	Left	Yes	1.92630859999917	0	315670	252
618.603515625	1.92630859999917	health	choicePhaseStart	1	59	59	foodImage.64	FOODEEG_Images\0647.jpg	YN	Left	Yes	1.92630859999917	0	316726	253
620.51953125	0	health	response	1	59	59	foodImage.64	FOODEEG_Images\0647.jpg	YN	Left	Yes	1.92630859999917	0	317707	234
621.5625	1	decision	trialStart	1	60	60	foodImage.23	FOODEEG_Images\0244.jpg	YN	Right	No	0.916297600022517	0	318241	251
622.603515625	2	decision	foodImageDisplay	1	60	60	foodImage.23	FOODEEG_Images\0244.jpg	YN	Right	No	0.916297600022517	0	318774	252
624.666015625	0.916297600022517	decision	choicePhaseStart	1	60	60	foodImage.23	FOODEEG_Images\0244.jpg	YN	Right	No	0.916297600022517	0	319830	253
625.576171875	0	decision	response	1	60	60	foodImage.23	FOODEEG_Images\0244.jpg	YN	Right	No	0.916297600022517	0	320296	235
627.619140625	16.927734375	n/a	blockEnd	n/a	n/a	n/a	n/a	n/a	n/a	n/a	n/a	n/a	n/a	321342	254
644.546875	2	n/a	blockStart	2	n/a	n/a	n/a	n/a	n/a	n/a	n/a	n/a	n/a	330009	250
646.578125	1	taste	trialStart	2	61	1	foodImage.79	FOODEEG_Images\0794.jpg	NY	Right	Yes	0.982678100001067	0	331049	251
647.62109375	2	taste	foodImageDisplay	2	61	1	foodImage.79	FOODEEG_Images\0794.jpg	NY	Right	Yes	0.982678100001067	0	331583	252
649.68359375	0.982678100001067	taste	choicePhaseStart	2	61	1	foodImage.79	FOODEEG_Images\0794.jpg	NY	Right	Yes	0.982678100001067	0	332639	253
650.662109375	0	taste	response	2	61	1	foodImage.79	FOODEEG_Images\0794.jpg	NY	Right	Yes	0.982678100001067	0	333140	235
651.703125	1	health	trialStart	2	62	2	foodImage.61	FOODEEG_Images\0640.jpg	NY	Right	Yes	1.00080939999316	0	333673	251
652.74609375	2	health	foodImageDisplay	2	62	2	foodImage.61	FOODEEG_Images\0640.jpg	NY	Right	Yes	1.00080939999316	0	334207	252
654.80859375	1.00080939999316	health	choicePhaseStart	2	62	2	foodImage.61	FOODEEG_Images\0640.jpg	NY	Right	Yes	1.00080939999316	0	335263	253
655.798828125	0	health	response	2	62	2	foodImage.61	FOODEEG_Images\0640.jpg	NY	Right	Yes	1.00080939999316	0	335770	235
656.841796875	1	taste	trialStart	2	63	3	foodImage.43	FOODEEG_Images\0445.jpg	YN	Left	Yes	1.28291469998658	0	336304	251
657.90234375	2	taste	foodImageDisplay	2	63	3	foodImage.43	FOODEEG_Images\0445.jpg	YN	Left	Yes	1.28291469998658	0	336847	252
659.96484375	1.28291469998658	taste	choicePhaseStart	2	63	3	foodImage.43	FOODEEG_Images\0445.jpg	YN	Left	Yes	1.28291469998658	0	337903	253
661.23828125	0	taste	response	2	63	3	foodImage.43	FOODEEG_Images\0445.jpg	YN	Left	Yes	1.28291469998658	0	338555	234
662.28125	1	decision	trialStart	2	64	4	foodImage.2	FOODEEG_Images\0028.jpg	YN	Left	Yes	1.05092130007688	0	339089	251
663.322265625	2	decision	foodImageDisplay	2	64	4	foodImage.2	FOODEEG_Images\0028.jpg	YN	Left	Yes	1.05092130007688	0	339622	252
665.388671875	1.05092130007688	decision	choicePhaseStart	2	64	4	foodImage.2	FOODEEG_Images\0028.jpg	YN	Left	Yes	1.05092130007688	0	340680	253
666.4296875	0	decision	response	2	64	4	foodImage.2	FOODEEG_Images\0028.jpg	YN	Left	Yes	1.05092130007688	0	341213	234
667.470703125	1	decision	trialStart	2	65	5	foodImage.14	FOODEEG_Images\0188.jpg	YN	Left	Yes	0.694824400008656	0	341746	251
668.529296875	2	decision	foodImageDisplay	2	65	5	foodImage.14	FOODEEG_Images\0188.jpg	YN	Left	Yes	0.694824400008656	0	342288	252
670.591796875	0.694824400008656	decision	choicePhaseStart	2	65	5	foodImage.14	FOODEEG_Images\0188.jpg	YN	Left	Yes	0.694824400008656	0	343344	253
671.27734375	0	decision	response	2	65	5	foodImage.14	FOODEEG_Images\0188.jpg	YN	Left	Yes	0.694824400008656	0	343695	234
672.318359375	1	taste	trialStart	2	66	6	foodImage.41	FOODEEG_Images\0409.jpg	YN	Left	Yes	0.783330600010231	0	344228	251
673.3671875	2	taste	foodImageDisplay	2	66	6	foodImage.41	FOODEEG_Images\0409.jpg	YN	Left	Yes	0.783330600010231	0	344765	252
675.4296875	0.783330600010231	taste	choicePhaseStart	2	66	6	foodImage.41	FOODEEG_Images\0409.jpg	YN	Left	Yes	0.783330600010231	0	345821	253
676.20703125	0	taste	response	2	66	6	foodImage.41	FOODEEG_Images\0409.jpg	YN	Left	Yes	0.783330600010231	0	346219	234
677.24609375	1	health	trialStart	2	67	7	foodImage.100	FOODEEG_Images\0908.jpg	NY	Right	Yes	1.17188419995364	0	346751	251
678.28515625	2	health	foodImageDisplay	2	67	7	foodImage.100	FOODEEG_Images\0908.jpg	NY	Right	Yes	1.17188419995364	0	347283	252
680.34765625	1.17188419995364	health	choicePhaseStart	2	67	7	foodImage.100	FOODEEG_Images\0908.jpg	NY	Right	Yes	1.17188419995364	0	348339	253
681.509765625	0	health	response	2	67	7	foodImage.100	FOODEEG_Images\0908.jpg	NY	Right	Yes	1.17188419995364	0	348934	235
682.55078125	1	taste	trialStart	2	68	8	foodImage.59	FOODEEG_Images\0607.jpg	YN	Left	Yes	0.925021999981254	0	349467	251
683.595703125	2	taste	foodImageDisplay	2	68	8	foodImage.59	FOODEEG_Images\0607.jpg	YN	Left	Yes	0.925021999981254	0	350002	252
685.658203125	0.925021999981254	taste	choicePhaseStart	2	68	8	foodImage.59	FOODEEG_Images\0607.jpg	YN	Left	Yes	0.925021999981254	0	351058	253
686.57421875	0	taste	response	2	68	8	foodImage.59	FOODEEG_Images\0607.jpg	YN	Left	Yes	0.925021999981254	0	351527	234
687.6171875	1	decision	trialStart	2	69	9	foodImage.74	FOODEEG_Images\0752.jpg	YN	Right	No	1.30927970004268	0	352061	251
688.66015625	2	decision	foodImageDisplay	2	69	9	foodImage.74	FOODEEG_Images\0752.jpg	YN	Right	No	1.30927970004268	0	352595	252
690.720703125	1.30927970004268	decision	choicePhaseStart	2	69	9	foodImage.74	FOODEEG_Images\0752.jpg	YN	Right	No	1.30927970004268	0	353650	253
692.021484375	0	decision	response	2	69	9	foodImage.74	FOODEEG_Images\0752.jpg	YN	Right	No	1.30927970004268	0	354316	235
693.060546875	1	health	trialStart	2	70	10	foodImage.98	FOODEEG_Images\0906.jpg	YN	Left	Yes	0.795787899987772	0	354848	251
694.099609375	2	health	foodImageDisplay	2	70	10	foodImage.98	FOODEEG_Images\0906.jpg	YN	Left	Yes	0.795787899987772	0	355380	252
696.162109375	0.795787899987772	health	choicePhaseStart	2	70	10	foodImage.98	FOODEEG_Images\0906.jpg	YN	Left	Yes	0.795787899987772	0	356436	253
696.94921875	0	health	response	2	70	10	foodImage.98	FOODEEG_Images\0906.jpg	YN	Left	Yes	0.795787899987772	0	356839	234
697.9921875	1	health	trialStart	2	71	11	foodImage.88	FOODEEG_Images\0878.jpg	NY	Right	Yes	0.954153600032441	0	357373	251
699.048828125	2	health	foodImageDisplay	2	71	11	foodImage.88	FOODEEG_Images\0878.jpg	NY	Right	Yes	0.954153600032441	0	357914	252
701.11328125	0.954153600032441	health	choicePhaseStart	2	71	11	foodImage.88	FOODEEG_Images\0878.jpg	NY	Right	Yes	0.954153600032441	0	358971	253
702.060546875	0	health	response	2	71	11	foodImage.88	FOODEEG_Images\0878.jpg	NY	Right	Yes	0.954153600032441	0	359456	235
703.109375	1	health	trialStart	2	72	12	foodImage.8	FOODEEG_Images\0136.jpg	YN	Left	Yes	1.10017390002031	0	359993	251
704.150390625	2	health	foodImageDisplay	2	72	12	foodImage.8	FOODEEG_Images\0136.jpg	YN	Left	Yes	1.10017390002031	0	360526	252
706.21484375	1.10017390002031	health	choicePhaseStart	2	72	12	foodImage.8	FOODEEG_Images\0136.jpg	YN	Left	Yes	1.10017390002031	0	361583	253
707.30859375	0	health	response	2	72	12	foodImage.8	FOODEEG_Images\0136.jpg	YN	Left	Yes	1.10017390002031	0	362143	234
708.3515625	1	decision	trialStart	2	73	13	foodImage.69	FOODEEG_Images\0693.jpg	NY	Right	Yes	1.10717430000659	0	362677	251
709.396484375	2	decision	foodImageDisplay	2	73	13	foodImage.69	FOODEEG_Images\0693.jpg	NY	Right	Yes	1.10717430000659	0	363212	252
711.458984375	1.10717430000659	decision	choicePhaseStart	2	73	13	foodImage.69	FOODEEG_Images\0693.jpg	NY	Right	Yes	1.10717430000659	0	364268	253
712.556640625	0	decision	response	2	73	13	foodImage.69	FOODEEG_Images\0693.jpg	NY	Right	Yes	1.10717430000659	0	364830	235
713.59765625	1	health	trialStart	2	74	14	foodImage.62	FOODEEG_Images\0644.jpg	YN	Left	Yes	0.810281000100076	0	365363	251
714.65234375	2	health	foodImageDisplay	2	74	14	foodImage.62	FOODEEG_Images\0644.jpg	YN	Left	Yes	0.810281000100076	0	365903	252
716.71484375	0.810281000100076	health	choicePhaseStart	2	74	14	foodImage.62	FOODEEG_Images\0644.jpg	YN	Left	Yes	0.810281000100076	0	366959	253
717.517578125	0	health	response	2	74	14	foodImage.62	FOODEEG_Images\0644.jpg	YN	Left	Yes	0.810281000100076	0	367370	234
718.556640625	1	taste	trialStart	2	75	15	foodImage.95	FOODEEG_Images\0903.jpg	NY	Left	No	1.10070920002181	0	367902	251
719.595703125	2	taste	foodImageDisplay	2	75	15	foodImage.95	FOODEEG_Images\0903.jpg	NY	Left	No	1.10070920002181	0	368434	252
721.658203125	1.10070920002181	taste	choicePhaseStart	2	75	15	foodImage.95	FOODEEG_Images\0903.jpg	NY	Left	No	1.10070920002181	0	369490	253
722.748046875	0	taste	response	2	75	15	foodImage.95	FOODEEG_Images\0903.jpg	NY	Left	No	1.10070920002181	0	370048	234
723.791015625	1	taste	trialStart	2	76	16	foodImage.56	FOODEEG_Images\0586.jpg	YN	Right	No	0.939624499995261	0	370582	251
724.833984375	2	taste	foodImageDisplay	2	76	16	foodImage.56	FOODEEG_Images\0586.jpg	YN	Right	No	0.939624499995261	0	371116	252
726.896484375	0.939624499995261	taste	choicePhaseStart	2	76	16	foodImage.56	FOODEEG_Images\0586.jpg	YN	Right	No	0.939624499995261	0	372172	253
727.828125	0	taste	response	2	76	16	foodImage.56	FOODEEG_Images\0586.jpg	YN	Right	No	0.939624499995261	0	372649	235
728.869140625	1	health	trialStart	2	77	17	foodImage.2	FOODEEG_Images\0028.jpg	NY	Right	Yes	1.42367529997136	0	373182	251
729.912109375	2	health	foodImageDisplay	2	77	17	foodImage.2	FOODEEG_Images\0028.jpg	NY	Right	Yes	1.42367529997136	0	373716	252
731.974609375	1.42367529997136	health	choicePhaseStart	2	77	17	foodImage.2	FOODEEG_Images\0028.jpg	NY	Right	Yes	1.42367529997136	0	374772	253
733.388671875	0	health	response	2	77	17	foodImage.2	FOODEEG_Images\0028.jpg	NY	Right	Yes	1.42367529997136	0	375496	235
734.431640625	1	health	trialStart	2	78	18	foodImage.69	FOODEEG_Images\0693.jpg	NY	Right	Yes	1.75735950004309	0	376030	251
735.47265625	2	health	foodImageDisplay	2	78	18	foodImage.69	FOODEEG_Images\0693.jpg	NY	Right	Yes	1.75735950004309	0	376563	252
737.53515625	1.75735950004309	health	choicePhaseStart	2	78	18	foodImage.69	FOODEEG_Images\0693.jpg	NY	Right	Yes	1.75735950004309	0	377619	253
739.283203125	0	health	response	2	78	18	foodImage.69	FOODEEG_Images\0693.jpg	NY	Right	Yes	1.75735950004309	0	378514	235
740.326171875	1	health	trialStart	2	79	19	foodImage.33	FOODEEG_Images\0329.jpg	YN	Left	Yes	0.814212099998258	0	379048	251
741.369140625	2	health	foodImageDisplay	2	79	19	foodImage.33	FOODEEG_Images\0329.jpg	YN	Left	Yes	0.814212099998258	0	379582	252
743.431640625	0.814212099998258	health	choicePhaseStart	2	79	19	foodImage.33	FOODEEG_Images\0329.jpg	YN	Left	Yes	0.814212099998258	0	380638	253
744.236328125	0	health	response	2	79	19	foodImage.33	FOODEEG_Images\0329.jpg	YN	Left	Yes	0.814212099998258	0	381050	234
745.279296875	1	decision	trialStart	2	80	20	foodImage.62	FOODEEG_Images\0644.jpg	YN	Left	Yes	2.44171829998959	0	381584	251
746.35546875	2	decision	foodImageDisplay	2	80	20	foodImage.62	FOODEEG_Images\0644.jpg	YN	Left	Yes	2.44171829998959	0	382135	252
748.41796875	2.44171829998959	decision	choicePhaseStart	2	80	20	foodImage.62	FOODEEG_Images\0644.jpg	YN	Left	Yes	2.44171829998959	0	383191	253
750.8515625	0	decision	response	2	80	20	foodImage.62	FOODEEG_Images\0644.jpg	YN	Left	Yes	2.44171829998959	0	384437	234
751.89453125	1	taste	trialStart	2	81	21	foodImage.90	FOODEEG_Images\0890.jpg	YN	Left	Yes	0.899523700005375	0	384971	251
752.955078125	2	taste	foodImageDisplay	2	81	21	foodImage.90	FOODEEG_Images\0890.jpg	YN	Left	Yes	0.899523700005375	0	385514	252
755.015625	0.899523700005375	taste	choicePhaseStart	2	81	21	foodImage.90	FOODEEG_Images\0890.jpg	YN	Left	Yes	0.899523700005375	0	386569	253
755.90625	0	taste	response	2	81	21	foodImage.90	FOODEEG_Images\0890.jpg	YN	Left	Yes	0.899523700005375	0	387025	234
756.94921875	1	decision	trialStart	2	82	22	foodImage.92	FOODEEG_Images\0900.jpg	YN	Right	No	1.09839470009319	0	387559	251
757.98828125	2	decision	foodImageDisplay	2	82	22	foodImage.92	FOODEEG_Images\0900.jpg	YN	Right	No	1.09839470009319	0	388091	252
760.0546875	1.09839470009319	decision	choicePhaseStart	2	82	22	foodImage.92	FOODEEG_Images\0900.jpg	YN	Right	No	1.09839470009319	0	389149	253
761.146484375	0	decision	response	2	82	22	foodImage.92	FOODEEG_Images\0900.jpg	YN	Right	No	1.09839470009319	0	389708	235
762.189453125	1	decision	trialStart	2	83	23	foodImage.12	FOODEEG_Images\0181.jpg	NY	Left	No	1.92616460006684	0	390242	251
763.23046875	2	decision	foodImageDisplay	2	83	23	foodImage.12	FOODEEG_Images\0181.jpg	NY	Left	No	1.92616460006684	0	390775	252
765.29296875	1.92616460006684	decision	choicePhaseStart	2	83	23	foodImage.12	FOODEEG_Images\0181.jpg	NY	Left	No	1.92616460006684	0	391831	253
767.2109375	0	decision	response	2	83	23	foodImage.12	FOODEEG_Images\0181.jpg	NY	Left	No	1.92616460006684	0	392813	234
768.251953125	1	taste	trialStart	2	84	24	foodImage.109	FOODEEG_Images\0917.jpg	YN	Left	Yes	0.773676100070588	0	393346	251
769.294921875	2	taste	foodImageDisplay	2	84	24	foodImage.109	FOODEEG_Images\0917.jpg	YN	Left	Yes	0.773676100070588	0	393880	252
771.357421875	0.773676100070588	taste	choicePhaseStart	2	84	24	foodImage.109	FOODEEG_Images\0917.jpg	YN	Left	Yes	0.773676100070588	0	394936	253
772.123046875	0	taste	response	2	84	24	foodImage.109	FOODEEG_Images\0917.jpg	YN	Left	Yes	0.773676100070588	0	395328	234
773.1640625	1	decision	trialStart	2	85	25	foodImage.82	FOODEEG_Images\0805.jpg	YN	Left	Yes	1.53973119996954	0	395861	251
774.216796875	2	decision	foodImageDisplay	2	85	25	foodImage.82	FOODEEG_Images\0805.jpg	YN	Left	Yes	1.53973119996954	0	396400	252
776.279296875	1.53973119996954	decision	choicePhaseStart	2	85	25	foodImage.82	FOODEEG_Images\0805.jpg	YN	Left	Yes	1.53973119996954	0	397456	253
777.810546875	0	decision	response	2	85	25	foodImage.82	FOODEEG_Images\0805.jpg	YN	Left	Yes	1.53973119996954	0	398240	234
778.853515625	1	taste	trialStart	2	86	26	foodImage.120	FOODEEG_Images\0928.jpg	NY	Left	No	0.984879299998283	0	398774	251
779.890625	2	taste	foodImageDisplay	2	86	26	foodImage.120	FOODEEG_Images\0928.jpg	NY	Left	No	0.984879299998283	0	399305	252
781.953125	0.984879299998283	taste	choicePhaseStart	2	86	26	foodImage.120	FOODEEG_Images\0928.jpg	NY	Left	No	0.984879299998283	0	400361	253
782.9296875	0	taste	response	2	86	26	foodImage.120	FOODEEG_Images\0928.jpg	NY	Left	No	0.984879299998283	0	400861	234
783.97265625	1	taste	trialStart	2	87	27	foodImage.62	FOODEEG_Images\0644.jpg	YN	Left	Yes	0.63008070003707	0	401395	251
785.03125	2	taste	foodImageDisplay	2	87	27	foodImage.62	FOODEEG_Images\0644.jpg	YN	Left	Yes	0.63008070003707	0	401937	252
787.09375	0.63008070003707	taste	choicePhaseStart	2	87	27	foodImage.62	FOODEEG_Images\0644.jpg	YN	Left	Yes	0.63008070003707	0	402993	253
787.712890625	0	taste	response	2	87	27	foodImage.62	FOODEEG_Images\0644.jpg	YN	Left	Yes	0.63008070003707	0	403310	234
788.755859375	1	health	trialStart	2	88	28	foodImage.27	FOODEEG_Images\0263.jpg	YN	Left	Yes	1.03715139999986	0	403844	251
789.796875	2	health	foodImageDisplay	2	88	28	foodImage.27	FOODEEG_Images\0263.jpg	YN	Left	Yes	1.03715139999986	0	404377	252
791.859375	1.03715139999986	health	choicePhaseStart	2	88	28	foodImage.27	FOODEEG_Images\0263.jpg	YN	Left	Yes	1.03715139999986	0	405433	253
792.890625	0	health	response	2	88	28	foodImage.27	FOODEEG_Images\0263.jpg	YN	Left	Yes	1.03715139999986	0	405961	234
793.931640625	1	decision	trialStart	2	89	29	foodImage.34	FOODEEG_Images\0339.jpg	NY	Right	Yes	1.00430000002962	0	406494	251
794.98828125	2	decision	foodImageDisplay	2	89	29	foodImage.34	FOODEEG_Images\0339.jpg	NY	Right	Yes	1.00430000002962	0	407035	252
797.0546875	1.00430000002962	decision	choicePhaseStart	2	89	29	foodImage.34	FOODEEG_Images\0339.jpg	NY	Right	Yes	1.00430000002962	0	408093	253
798.048828125	0	decision	response	2	89	29	foodImage.34	FOODEEG_Images\0339.jpg	NY	Right	Yes	1.00430000002962	0	408602	235
799.09375	1	health	trialStart	2	90	30	foodImage.112	FOODEEG_Images\0920.jpg	NY	Left	No	0.781873999978416	0	409137	251
800.1328125	2	health	foodImageDisplay	2	90	30	foodImage.112	FOODEEG_Images\0920.jpg	NY	Left	No	0.781873999978416	0	409669	252
802.1953125	0.781873999978416	health	choicePhaseStart	2	90	30	foodImage.112	FOODEEG_Images\0920.jpg	NY	Left	No	0.781873999978416	0	410725	253
802.96875	0	health	response	2	90	30	foodImage.112	FOODEEG_Images\0920.jpg	NY	Left	No	0.781873999978416	0	411121	234
804.01171875	1	taste	trialStart	2	91	31	foodImage.42	FOODEEG_Images\0438.jpg	NY	Right	Yes	1.68422679998912	0	411655	251
805.103515625	2	taste	foodImageDisplay	2	91	31	foodImage.42	FOODEEG_Images\0438.jpg	NY	Right	Yes	1.68422679998912	0	412214	252
807.166015625	1.68422679998912	taste	choicePhaseStart	2	91	31	foodImage.42	FOODEEG_Images\0438.jpg	NY	Right	Yes	1.68422679998912	0	413270	253
808.83984375	0	taste	response	2	91	31	foodImage.42	FOODEEG_Images\0438.jpg	NY	Right	Yes	1.68422679998912	0	414127	235
809.884765625	1	taste	trialStart	2	92	32	foodImage.12	FOODEEG_Images\0181.jpg	NY	Left	No	1.48024369997438	0	414662	251
810.939453125	2	taste	foodImageDisplay	2	92	32	foodImage.12	FOODEEG_Images\0181.jpg	NY	Left	No	1.48024369997438	0	415202	252
813.001953125	1.48024369997438	taste	choicePhaseStart	2	92	32	foodImage.12	FOODEEG_Images\0181.jpg	NY	Left	No	1.48024369997438	0	416258	253
814.47265625	0	taste	response	2	92	32	foodImage.12	FOODEEG_Images\0181.jpg	NY	Left	No	1.48024369997438	0	417011	234
815.515625	1	health	trialStart	2	93	33	foodImage.65	FOODEEG_Images\0658.jpg	YN	Left	Yes	0.703681899933144	0	417545	251
816.5546875	2	health	foodImageDisplay	2	93	33	foodImage.65	FOODEEG_Images\0658.jpg	YN	Left	Yes	0.703681899933144	0	418077	252
818.6171875	0.703681899933144	health	choicePhaseStart	2	93	33	foodImage.65	FOODEEG_Images\0658.jpg	YN	Left	Yes	0.703681899933144	0	419133	253
819.3125	0	health	response	2	93	33	foodImage.65	FOODEEG_Images\0658.jpg	YN	Left	Yes	0.703681899933144	0	419489	234
820.35546875	1	health	trialStart	2	94	34	foodImage.48	FOODEEG_Images\0494.jpg	NY	Left	No	1.49306930007879	0	420023	251
821.396484375	2	health	foodImageDisplay	2	94	34	foodImage.48	FOODEEG_Images\0494.jpg	NY	Left	No	1.49306930007879	0	420556	252
823.458984375	1.49306930007879	health	choicePhaseStart	2	94	34	foodImage.48	FOODEEG_Images\0494.jpg	NY	Left	No	1.49306930007879	0	421612	253
824.9453125	0	health	response	2	94	34	foodImage.48	FOODEEG_Images\0494.jpg	NY	Left	No	1.49306930007879	0	422373	234
825.986328125	1	decision	trialStart	2	95	35	foodImage.56	FOODEEG_Images\0586.jpg	NY	Left	No	1.02163199998904	0	422906	251
827.029296875	2	decision	foodImageDisplay	2	95	35	foodImage.56	FOODEEG_Images\0586.jpg	NY	Left	No	1.02163199998904	0	423440	252
829.091796875	1.02163199998904	decision	choicePhaseStart	2	95	35	foodImage.56	FOODEEG_Images\0586.jpg	NY	Left	No	1.02163199998904	0	424496	253
830.103515625	0	decision	response	2	95	35	foodImage.56	FOODEEG_Images\0586.jpg	NY	Left	No	1.02163199998904	0	425014	234
831.14453125	1	health	trialStart	2	96	36	foodImage.111	FOODEEG_Images\0919.jpg	YN	Right	No	0.930703899939544	0	425547	251
832.18359375	2	health	foodImageDisplay	2	96	36	foodImage.111	FOODEEG_Images\0919.jpg	YN	Right	No	0.930703899939544	0	426079	252
834.24609375	0.930703899939544	health	choicePhaseStart	2	96	36	foodImage.111	FOODEEG_Images\0919.jpg	YN	Right	No	0.930703899939544	0	427135	253
835.16796875	0	health	response	2	96	36	foodImage.111	FOODEEG_Images\0919.jpg	YN	Right	No	0.930703899939544	0	427607	235
836.208984375	1	taste	trialStart	2	97	37	foodImage.104	FOODEEG_Images\0912.jpg	NY	Right	Yes	1.01095799996983	0	428140	251
837.248046875	2	taste	foodImageDisplay	2	97	37	foodImage.104	FOODEEG_Images\0912.jpg	NY	Right	Yes	1.01095799996983	0	428672	252
839.310546875	1.01095799996983	taste	choicePhaseStart	2	97	37	foodImage.104	FOODEEG_Images\0912.jpg	NY	Right	Yes	1.01095799996983	0	429728	253
840.3125	0	taste	response	2	97	37	foodImage.104	FOODEEG_Images\0912.jpg	NY	Right	Yes	1.01095799996983	0	430241	235
841.365234375	1	decision	trialStart	2	98	38	foodImage.47	FOODEEG_Images\0488.jpg	NY	Right	Yes	0.818835300044157	0	430780	251
842.40625	2	decision	foodImageDisplay	2	98	38	foodImage.47	FOODEEG_Images\0488.jpg	NY	Right	Yes	0.818835300044157	0	431313	252
844.46875	0.818835300044157	decision	choicePhaseStart	2	98	38	foodImage.47	FOODEEG_Images\0488.jpg	NY	Right	Yes	0.818835300044157	0	432369	253
845.279296875	0	decision	response	2	98	38	foodImage.47	FOODEEG_Images\0488.jpg	NY	Right	Yes	0.818835300044157	0	432784	235
846.32421875	1	taste	trialStart	2	99	39	foodImage.30	FOODEEG_Images\0282.jpg	YN	Left	Yes	0.765062400023453	0	433319	251
847.37109375	2	taste	foodImageDisplay	2	99	39	foodImage.30	FOODEEG_Images\0282.jpg	YN	Left	Yes	0.765062400023453	0	433855	252
849.43359375	0.765062400023453	taste	choicePhaseStart	2	99	39	foodImage.30	FOODEEG_Images\0282.jpg	YN	Left	Yes	0.765062400023453	0	434911	253
850.19140625	0	taste	response	2	99	39	foodImage.30	FOODEEG_Images\0282.jpg	YN	Left	Yes	0.765062400023453	0	435299	234
851.234375	1	health	trialStart	2	100	40	foodImage.114	FOODEEG_Images\0922.jpg	YN	Left	Yes	0.979320799931884	0	435833	251
852.271484375	2	health	foodImageDisplay	2	100	40	foodImage.114	FOODEEG_Images\0922.jpg	YN	Left	Yes	0.979320799931884	0	436364	252
854.333984375	0.979320799931884	health	choicePhaseStart	2	100	40	foodImage.114	FOODEEG_Images\0922.jpg	YN	Left	Yes	0.979320799931884	0	437420	253
855.302734375	0	health	response	2	100	40	foodImage.114	FOODEEG_Images\0922.jpg	YN	Left	Yes	0.979320799931884	0	437916	234
856.345703125	1	decision	trialStart	2	101	41	foodImage.72	FOODEEG_Images\0714.jpg	NY	Left	No	1.17396229994483	0	438450	251
857.388671875	2	decision	foodImageDisplay	2	101	41	foodImage.72	FOODEEG_Images\0714.jpg	NY	Left	No	1.17396229994483	0	438984	252
859.451171875	1.17396229994483	decision	choicePhaseStart	2	101	41	foodImage.72	FOODEEG_Images\0714.jpg	NY	Left	No	1.17396229994483	0	440040	253
860.615234375	0	decision	response	2	101	41	foodImage.72	FOODEEG_Images\0714.jpg	NY	Left	No	1.17396229994483	0	440636	234
861.658203125	1	decision	trialStart	2	102	42	foodImage.78	FOODEEG_Images\0787.jpg	NY	Right	Yes	0.979739399976097	0	441170	251
862.701171875	2	decision	foodImageDisplay	2	102	42	foodImage.78	FOODEEG_Images\0787.jpg	NY	Right	Yes	0.979739399976097	0	441704	252
864.763671875	0.979739399976097	decision	choicePhaseStart	2	102	42	foodImage.78	FOODEEG_Images\0787.jpg	NY	Right	Yes	0.979739399976097	0	442760	253
865.734375	0	decision	response	2	102	42	foodImage.78	FOODEEG_Images\0787.jpg	NY	Right	Yes	0.979739399976097	0	443257	235
866.77734375	1	decision	trialStart	2	103	43	foodImage.44	FOODEEG_Images\0459.jpg	NY	Right	Yes	0.730379799962975	0	443791	251
867.822265625	2	decision	foodImageDisplay	2	103	43	foodImage.44	FOODEEG_Images\0459.jpg	NY	Right	Yes	0.730379799962975	0	444326	252
869.884765625	0.730379799962975	decision	choicePhaseStart	2	103	43	foodImage.44	FOODEEG_Images\0459.jpg	NY	Right	Yes	0.730379799962975	0	445382	253
870.607421875	0	decision	response	2	103	43	foodImage.44	FOODEEG_Images\0459.jpg	NY	Right	Yes	0.730379799962975	0	445752	235
871.6484375	1	health	trialStart	2	104	44	foodImage.83	FOODEEG_Images\0827.jpg	NY	Right	Yes	1.03688359993976	0	446285	251
872.70703125	2	health	foodImageDisplay	2	104	44	foodImage.83	FOODEEG_Images\0827.jpg	NY	Right	Yes	1.03688359993976	0	446827	252
874.76953125	1.03688359993976	health	choicePhaseStart	2	104	44	foodImage.83	FOODEEG_Images\0827.jpg	NY	Right	Yes	1.03688359993976	0	447883	253
875.798828125	0	health	response	2	104	44	foodImage.83	FOODEEG_Images\0827.jpg	NY	Right	Yes	1.03688359993976	0	448410	235
876.841796875	1	health	trialStart	2	105	45	foodImage.10	FOODEEG_Images\0145.jpg	YN	Right	No	2.04805100010708	0	448944	251
877.8984375	2	health	foodImageDisplay	2	105	45	foodImage.10	FOODEEG_Images\0145.jpg	YN	Right	No	2.04805100010708	0	449485	252
879.958984375	2.04805100010708	health	choicePhaseStart	2	105	45	foodImage.10	FOODEEG_Images\0145.jpg	YN	Right	No	2.04805100010708	0	450540	253
881.998046875	0	health	response	2	105	45	foodImage.10	FOODEEG_Images\0145.jpg	YN	Right	No	2.04805100010708	0	451584	235
883.0390625	1	taste	trialStart	2	106	46	foodImage.1	FOODEEG_Images\0004.jpg	NY	Right	Yes	1.15882930008229	0	452117	251
884.080078125	2	taste	foodImageDisplay	2	106	46	foodImage.1	FOODEEG_Images\0004.jpg	NY	Right	Yes	1.15882930008229	0	452650	252
886.142578125	1.15882930008229	taste	choicePhaseStart	2	106	46	foodImage.1	FOODEEG_Images\0004.jpg	NY	Right	Yes	1.15882930008229	0	453706	253
887.29296875	0	taste	response	2	106	46	foodImage.1	FOODEEG_Images\0004.jpg	NY	Right	Yes	1.15882930008229	0	454295	235
888.337890625	1	taste	trialStart	2	107	47	foodImage.75	FOODEEG_Images\0763.jpg	YN	Right	No	1.74620070005767	0	454830	251
889.3828125	2	taste	foodImageDisplay	2	107	47	foodImage.75	FOODEEG_Images\0763.jpg	YN	Right	No	1.74620070005767	0	455365	252
891.4453125	1.74620070005767	taste	choicePhaseStart	2	107	47	foodImage.75	FOODEEG_Images\0763.jpg	YN	Right	No	1.74620070005767	0	456421	253
893.181640625	0	taste	response	2	107	47	foodImage.75	FOODEEG_Images\0763.jpg	YN	Right	No	1.74620070005767	0	457310	235
894.224609375	1	health	trialStart	2	108	48	foodImage.46	FOODEEG_Images\0479.jpg	YN	Left	Yes	0.916246599983424	0	457844	251
895.283203125	2	health	foodImageDisplay	2	108	48	foodImage.46	FOODEEG_Images\0479.jpg	YN	Left	Yes	0.916246599983424	0	458386	252
897.345703125	0.916246599983424	health	choicePhaseStart	2	108	48	foodImage.46	FOODEEG_Images\0479.jpg	YN	Left	Yes	0.916246599983424	0	459442	253
898.25390625	0	health	response	2	108	48	foodImage.46	FOODEEG_Images\0479.jpg	YN	Left	Yes	0.916246599983424	0	459907	234
899.30078125	1	health	trialStart	2	109	49	foodImage.7	FOODEEG_Images\0116.jpg	NY	Left	No	0.784752000006847	0	460443	251
900.341796875	2	health	foodImageDisplay	2	109	49	foodImage.7	FOODEEG_Images\0116.jpg	NY	Left	No	0.784752000006847	0	460976	252
902.404296875	0.784752000006847	health	choicePhaseStart	2	109	49	foodImage.7	FOODEEG_Images\0116.jpg	NY	Left	No	0.784752000006847	0	462032	253
903.181640625	0	health	response	2	109	49	foodImage.7	FOODEEG_Images\0116.jpg	NY	Left	No	0.784752000006847	0	462430	234
904.224609375	1	decision	trialStart	2	110	50	foodImage.51	FOODEEG_Images\0536.jpg	NY	Right	Yes	0.914988899952732	0	462964	251
905.26953125	2	decision	foodImageDisplay	2	110	50	foodImage.51	FOODEEG_Images\0536.jpg	NY	Right	Yes	0.914988899952732	0	463499	252
907.33203125	0.914988899952732	decision	choicePhaseStart	2	110	50	foodImage.51	FOODEEG_Images\0536.jpg	NY	Right	Yes	0.914988899952732	0	464555	253
908.236328125	0	decision	response	2	110	50	foodImage.51	FOODEEG_Images\0536.jpg	NY	Right	Yes	0.914988899952732	0	465018	235
909.28125	1	health	trialStart	2	111	51	foodImage.110	FOODEEG_Images\0918.jpg	YN	Right	No	1.0643688000273	0	465553	251
910.318359375	2	health	foodImageDisplay	2	111	51	foodImage.110	FOODEEG_Images\0918.jpg	YN	Right	No	1.0643688000273	0	466084	252
912.380859375	1.0643688000273	health	choicePhaseStart	2	111	51	foodImage.110	FOODEEG_Images\0918.jpg	YN	Right	No	1.0643688000273	0	467140	253
913.4375	0	health	response	2	111	51	foodImage.110	FOODEEG_Images\0918.jpg	YN	Right	No	1.0643688000273	0	467681	235
914.48046875	1	health	trialStart	2	112	52	foodImage.4	FOODEEG_Images\0065.jpg	NY	Left	No	1.36403459997382	0	468215	251
915.5390625	2	health	foodImageDisplay	2	112	52	foodImage.4	FOODEEG_Images\0065.jpg	NY	Left	No	1.36403459997382	0	468757	252
917.6015625	1.36403459997382	health	choicePhaseStart	2	112	52	foodImage.4	FOODEEG_Images\0065.jpg	NY	Left	No	1.36403459997382	0	469813	253
918.95703125	0	health	response	2	112	52	foodImage.4	FOODEEG_Images\0065.jpg	NY	Left	No	1.36403459997382	0	470507	234
919.998046875	1	taste	trialStart	2	113	53	foodImage.8	FOODEEG_Images\0136.jpg	NY	Right	Yes	1.4466852999758	0	471040	251
921.0390625	2	taste	foodImageDisplay	2	113	53	foodImage.8	FOODEEG_Images\0136.jpg	NY	Right	Yes	1.4466852999758	0	471573	252
923.1015625	1.4466852999758	taste	choicePhaseStart	2	113	53	foodImage.8	FOODEEG_Images\0136.jpg	NY	Right	Yes	1.4466852999758	0	472629	253
924.541015625	0	taste	response	2	113	53	foodImage.8	FOODEEG_Images\0136.jpg	NY	Right	Yes	1.4466852999758	0	473366	235
925.583984375	1	taste	trialStart	2	114	54	foodImage.45	FOODEEG_Images\0478.jpg	YN	Left	Yes	0.933616399997845	0	473900	251
926.626953125	2	taste	foodImageDisplay	2	114	54	foodImage.45	FOODEEG_Images\0478.jpg	YN	Left	Yes	0.933616399997845	0	474434	252
928.689453125	0.933616399997845	taste	choicePhaseStart	2	114	54	foodImage.45	FOODEEG_Images\0478.jpg	YN	Left	Yes	0.933616399997845	0	475490	253
929.61328125	0	taste	response	2	114	54	foodImage.45	FOODEEG_Images\0478.jpg	YN	Left	Yes	0.933616399997845	0	475963	234
930.65625	1	taste	trialStart	2	115	55	foodImage.31	FOODEEG_Images\0294.jpg	YN	Left	Yes	1.93297229998279	0	476497	251
931.697265625	2	taste	foodImageDisplay	2	115	55	foodImage.31	FOODEEG_Images\0294.jpg	YN	Left	Yes	1.93297229998279	0	477030	252
933.759765625	1.93297229998279	taste	choicePhaseStart	2	115	55	foodImage.31	FOODEEG_Images\0294.jpg	YN	Left	Yes	1.93297229998279	0	478086	253
935.68359375	0	taste	response	2	115	55	foodImage.31	FOODEEG_Images\0294.jpg	YN	Left	Yes	1.93297229998279	0	479071	234
936.7265625	1	taste	trialStart	2	116	56	foodImage.40	FOODEEG_Images\0373.jpg	YN	Left	Yes	0.59142349998001	0	479605	251
937.771484375	2	taste	foodImageDisplay	2	116	56	foodImage.40	FOODEEG_Images\0373.jpg	YN	Left	Yes	0.59142349998001	0	480140	252
939.837890625	0.59142349998001	taste	choicePhaseStart	2	116	56	foodImage.40	FOODEEG_Images\0373.jpg	YN	Left	Yes	0.59142349998001	0	481198	253
940.419921875	0	taste	response	2	116	56	foodImage.40	FOODEEG_Images\0373.jpg	YN	Left	Yes	0.59142349998001	0	481496	234
941.466796875	1	decision	trialStart	2	117	57	foodImage.116	FOODEEG_Images\0924.jpg	NY	Left	No	0.877542700036429	0	482032	251
942.505859375	2	decision	foodImageDisplay	2	117	57	foodImage.116	FOODEEG_Images\0924.jpg	NY	Left	No	0.877542700036429	0	482564	252
944.568359375	0.877542700036429	decision	choicePhaseStart	2	117	57	foodImage.116	FOODEEG_Images\0924.jpg	NY	Left	No	0.877542700036429	0	483620	253
945.435546875	0	decision	response	2	117	57	foodImage.116	FOODEEG_Images\0924.jpg	NY	Left	No	0.877542700036429	0	484064	234
946.478515625	1	decision	trialStart	2	118	58	foodImage.9	FOODEEG_Images\0138.jpg	NY	Right	Yes	0.950417000101879	0	484598	251
947.53515625	2	decision	foodImageDisplay	2	118	58	foodImage.9	FOODEEG_Images\0138.jpg	NY	Right	Yes	0.950417000101879	0	485139	252
949.59765625	0.950417000101879	decision	choicePhaseStart	2	118	58	foodImage.9	FOODEEG_Images\0138.jpg	NY	Right	Yes	0.950417000101879	0	486195	253
950.5390625	0	decision	response	2	118	58	foodImage.9	FOODEEG_Images\0138.jpg	NY	Right	Yes	0.950417000101879	0	486677	235
951.58203125	1	health	trialStart	2	119	59	foodImage.63	FOODEEG_Images\0645.jpg	NY	Left	No	1.61217739991844	0	487211	251
952.625	2	health	foodImageDisplay	2	119	59	foodImage.63	FOODEEG_Images\0645.jpg	NY	Left	No	1.61217739991844	0	487745	252
954.6875	1.61217739991844	health	choicePhaseStart	2	119	59	foodImage.63	FOODEEG_Images\0645.jpg	NY	Left	No	1.61217739991844	0	488801	253
956.291015625	0	health	response	2	119	59	foodImage.63	FOODEEG_Images\0645.jpg	NY	Left	No	1.61217739991844	0	489622	234
957.33203125	1	decision	trialStart	2	120	60	foodImage.115	FOODEEG_Images\0923.jpg	YN	Left	Yes	1.20398380002007	0	490155	251
958.369140625	2	decision	foodImageDisplay	2	120	60	foodImage.115	FOODEEG_Images\0923.jpg	YN	Left	Yes	1.20398380002007	0	490686	252
960.431640625	1.20398380002007	decision	choicePhaseStart	2	120	60	foodImage.115	FOODEEG_Images\0923.jpg	YN	Left	Yes	1.20398380002007	0	491742	253
961.626953125	0	decision	response	2	120	60	foodImage.115	FOODEEG_Images\0923.jpg	YN	Left	Yes	1.20398380002007	0	492354	234
963.669921875	56.181640625	n/a	blockEnd	n/a	n/a	n/a	n/a	n/a	n/a	n/a	n/a	n/a	n/a	493400	254
1019.8515625	2	n/a	blockStart	3	n/a	n/a	n/a	n/a	n/a	n/a	n/a	n/a	n/a	522165	250
1021.8828125	1	taste	trialStart	3	121	1	foodImage.74	FOODEEG_Images\0752.jpg	YN	Left	Yes	1.19661220000125	0	523205	251
1022.927734375	2	taste	foodImageDisplay	3	121	1	foodImage.74	FOODEEG_Images\0752.jpg	YN	Left	Yes	1.19661220000125	0	523740	252
1024.9921875	1.19661220000125	taste	choicePhaseStart	3	121	1	foodImage.74	FOODEEG_Images\0752.jpg	YN	Left	Yes	1.19661220000125	0	524797	253
1026.18359375	0	taste	response	3	121	1	foodImage.74	FOODEEG_Images\0752.jpg	YN	Left	Yes	1.19661220000125	0	525407	234
1027.234375	1	decision	trialStart	3	122	2	foodImage.35	FOODEEG_Images\0350.jpg	YN	Left	Yes	0.929068600060418	0	525945	251
1028.2734375	2	decision	foodImageDisplay	3	122	2	foodImage.35	FOODEEG_Images\0350.jpg	YN	Left	Yes	0.929068600060418	0	526477	252
1030.3359375	0.929068600060418	decision	choicePhaseStart	3	122	2	foodImage.35	FOODEEG_Images\0350.jpg	YN	Left	Yes	0.929068600060418	0	527533	253
1031.255859375	0	decision	response	3	122	2	foodImage.35	FOODEEG_Images\0350.jpg	YN	Left	Yes	0.929068600060418	0	528004	234
1032.298828125	1	decision	trialStart	3	123	3	foodImage.87	FOODEEG_Images\0873.jpg	YN	Right	No	1.43639530008659	0	528538	251
1033.359375	2	decision	foodImageDisplay	3	123	3	foodImage.87	FOODEEG_Images\0873.jpg	YN	Right	No	1.43639530008659	0	529081	252
1035.421875	1.43639530008659	decision	choicePhaseStart	3	123	3	foodImage.87	FOODEEG_Images\0873.jpg	YN	Right	No	1.43639530008659	0	530137	253
1036.84765625	0	decision	response	3	123	3	foodImage.87	FOODEEG_Images\0873.jpg	YN	Right	No	1.43639530008659	0	530867	235
1037.890625	1	health	trialStart	3	124	4	foodImage.74	FOODEEG_Images\0752.jpg	NY	Right	Yes	0.986293300054967	0	531401	251
1038.935546875	2	health	foodImageDisplay	3	124	4	foodImage.74	FOODEEG_Images\0752.jpg	NY	Right	Yes	0.986293300054967	0	531936	252
1040.998046875	0.986293300054967	health	choicePhaseStart	3	124	4	foodImage.74	FOODEEG_Images\0752.jpg	NY	Right	Yes	0.986293300054967	0	532992	253
1041.9765625	0	health	response	3	124	4	foodImage.74	FOODEEG_Images\0752.jpg	NY	Right	Yes	0.986293300054967	0	533493	235
1043.01953125	1	taste	trialStart	3	125	5	foodImage.108	FOODEEG_Images\0916.jpg	NY	Left	No	0.977117700036615	0	534027	251
1044.056640625	2	taste	foodImageDisplay	3	125	5	foodImage.108	FOODEEG_Images\0916.jpg	NY	Left	No	0.977117700036615	0	534558	252
1046.12109375	0.977117700036615	taste	choicePhaseStart	3	125	5	foodImage.108	FOODEEG_Images\0916.jpg	NY	Left	No	0.977117700036615	0	535615	253
1047.087890625	0	taste	response	3	125	5	foodImage.108	FOODEEG_Images\0916.jpg	NY	Left	No	0.977117700036615	0	536110	234
1048.130859375	1	taste	trialStart	3	126	6	foodImage.35	FOODEEG_Images\0350.jpg	NY	Right	Yes	1.81708509998862	0	536644	251
1049.16796875	2	taste	foodImageDisplay	3	126	6	foodImage.35	FOODEEG_Images\0350.jpg	NY	Right	Yes	1.81708509998862	0	537175	252
1051.23046875	1.81708509998862	taste	choicePhaseStart	3	126	6	foodImage.35	FOODEEG_Images\0350.jpg	NY	Right	Yes	1.81708509998862	0	538231	253
1053.0390625	0	taste	response	3	126	6	foodImage.35	FOODEEG_Images\0350.jpg	NY	Right	Yes	1.81708509998862	0	539157	235
1054.08203125	1	decision	trialStart	3	127	7	foodImage.110	FOODEEG_Images\0918.jpg	YN	Right	No	1.29568630002905	0	539691	251
1055.12109375	2	decision	foodImageDisplay	3	127	7	foodImage.110	FOODEEG_Images\0918.jpg	YN	Right	No	1.29568630002905	0	540223	252
1057.18359375	1.29568630002905	decision	choicePhaseStart	3	127	7	foodImage.110	FOODEEG_Images\0918.jpg	YN	Right	No	1.29568630002905	0	541279	253
1058.470703125	0	decision	response	3	127	7	foodImage.110	FOODEEG_Images\0918.jpg	YN	Right	No	1.29568630002905	0	541938	235
1059.513671875	1	decision	trialStart	3	128	8	foodImage.97	FOODEEG_Images\0905.jpg	YN	Right	No	0.934880399960093	0	542472	251
1060.5546875	2	decision	foodImageDisplay	3	128	8	foodImage.97	FOODEEG_Images\0905.jpg	YN	Right	No	0.934880399960093	0	543005	252
1062.6171875	0.934880399960093	decision	choicePhaseStart	3	128	8	foodImage.97	FOODEEG_Images\0905.jpg	YN	Right	No	0.934880399960093	0	544061	253
1063.54296875	0	decision	response	3	128	8	foodImage.97	FOODEEG_Images\0905.jpg	YN	Right	No	0.934880399960093	0	544535	235
1064.5859375	1	taste	trialStart	3	129	9	foodImage.92	FOODEEG_Images\0900.jpg	YN	Right	No	1.0493060000008	0	545069	251
1065.623046875	2	taste	foodImageDisplay	3	129	9	foodImage.92	FOODEEG_Images\0900.jpg	YN	Right	No	1.0493060000008	0	545600	252
1067.685546875	1.0493060000008	taste	choicePhaseStart	3	129	9	foodImage.92	FOODEEG_Images\0900.jpg	YN	Right	No	1.0493060000008	0	546656	253
1068.7265625	0	taste	response	3	129	9	foodImage.92	FOODEEG_Images\0900.jpg	YN	Right	No	1.0493060000008	0	547189	235
1069.76953125	1	decision	trialStart	3	130	10	foodImage.79	FOODEEG_Images\0794.jpg	NY	Right	Yes	0.980668299947865	0	547723	251
1070.8125	2	decision	foodImageDisplay	3	130	10	foodImage.79	FOODEEG_Images\0794.jpg	NY	Right	Yes	0.980668299947865	0	548257	252
1072.875	0.980668299947865	decision	choicePhaseStart	3	130	10	foodImage.79	FOODEEG_Images\0794.jpg	NY	Right	Yes	0.980668299947865	0	549313	253
1073.845703125	0	decision	response	3	130	10	foodImage.79	FOODEEG_Images\0794.jpg	NY	Right	Yes	0.980668299947865	0	549810	235
1074.888671875	1	decision	trialStart	3	131	11	foodImage.71	FOODEEG_Images\0713.jpg	YN	Left	Yes	1.18449200002942	0	550344	251
1075.935546875	2	decision	foodImageDisplay	3	131	11	foodImage.71	FOODEEG_Images\0713.jpg	YN	Left	Yes	1.18449200002942	0	550880	252
1077.998046875	1.18449200002942	decision	choicePhaseStart	3	131	11	foodImage.71	FOODEEG_Images\0713.jpg	YN	Left	Yes	1.18449200002942	0	551936	253
1079.173828125	0	decision	response	3	131	11	foodImage.71	FOODEEG_Images\0713.jpg	YN	Left	Yes	1.18449200002942	0	552538	234
1080.216796875	1	health	trialStart	3	132	12	foodImage.103	FOODEEG_Images\0911.jpg	NY	Right	Yes	0.93406859994866	0	553072	251
1081.255859375	2	health	foodImageDisplay	3	132	12	foodImage.103	FOODEEG_Images\0911.jpg	NY	Right	Yes	0.93406859994866	0	553604	252
1083.318359375	0.93406859994866	health	choicePhaseStart	3	132	12	foodImage.103	FOODEEG_Images\0911.jpg	NY	Right	Yes	0.93406859994866	0	554660	253
1084.24609375	0	health	response	3	132	12	foodImage.103	FOODEEG_Images\0911.jpg	NY	Right	Yes	0.93406859994866	0	555135	235
1085.29296875	1	taste	trialStart	3	133	13	foodImage.101	FOODEEG_Images\0909.jpg	NY	Left	No	1.20679490000475	0	555671	251
1086.330078125	2	taste	foodImageDisplay	3	133	13	foodImage.101	FOODEEG_Images\0909.jpg	NY	Left	No	1.20679490000475	0	556202	252
1088.392578125	1.20679490000475	taste	choicePhaseStart	3	133	13	foodImage.101	FOODEEG_Images\0909.jpg	NY	Left	No	1.20679490000475	0	557258	253
1089.58984375	0	taste	response	3	133	13	foodImage.101	FOODEEG_Images\0909.jpg	NY	Left	No	1.20679490000475	0	557871	234
1090.634765625	1	health	trialStart	3	134	14	foodImage.21	FOODEEG_Images\0234.jpg	YN	Left	Yes	0.688900300068781	0	558406	251
1091.6953125	2	health	foodImageDisplay	3	134	14	foodImage.21	FOODEEG_Images\0234.jpg	YN	Left	Yes	0.688900300068781	0	558949	252
1093.7578125	0.688900300068781	health	choicePhaseStart	3	134	14	foodImage.21	FOODEEG_Images\0234.jpg	YN	Left	Yes	0.688900300068781	0	560005	253
1094.4375	0	health	response	3	134	14	foodImage.21	FOODEEG_Images\0234.jpg	YN	Left	Yes	0.688900300068781	0	560353	234
1095.482421875	1	health	trialStart	3	135	15	foodImage.87	FOODEEG_Images\0873.jpg	YN	Left	Yes	0.69047289993614	0	560888	251
1096.541015625	2	health	foodImageDisplay	3	135	15	foodImage.87	FOODEEG_Images\0873.jpg	YN	Left	Yes	0.69047289993614	0	561430	252
1098.603515625	0.69047289993614	health	choicePhaseStart	3	135	15	foodImage.87	FOODEEG_Images\0873.jpg	YN	Left	Yes	0.69047289993614	0	562486	253
1099.28515625	0	health	response	3	135	15	foodImage.87	FOODEEG_Images\0873.jpg	YN	Left	Yes	0.69047289993614	0	562835	234
1100.33203125	1	health	trialStart	3	136	16	foodImage.85	FOODEEG_Images\0841.jpg	NY	Left	No	1.38641150004696	0	563371	251
1101.390625	2	health	foodImageDisplay	3	136	16	foodImage.85	FOODEEG_Images\0841.jpg	NY	Left	No	1.38641150004696	0	563913	252
1103.451171875	1.38641150004696	health	choicePhaseStart	3	136	16	foodImage.85	FOODEEG_Images\0841.jpg	NY	Left	No	1.38641150004696	0	564968	253
1104.830078125	0	health	response	3	136	16	foodImage.85	FOODEEG_Images\0841.jpg	NY	Left	No	1.38641150004696	0	565674	234
1105.876953125	1	health	trialStart	3	137	17	foodImage.31	FOODEEG_Images\0294.jpg	YN	Right	No	1.0961307999678	0	566210	251
1106.919921875	2	health	foodImageDisplay	3	137	17	foodImage.31	FOODEEG_Images\0294.jpg	YN	Right	No	1.0961307999678	0	566744	252
1108.982421875	1.0961307999678	health	choicePhaseStart	3	137	17	foodImage.31	FOODEEG_Images\0294.jpg	YN	Right	No	1.0961307999678	0	567800	253
1110.068359375	0	health	response	3	137	17	foodImage.31	FOODEEG_Images\0294.jpg	YN	Right	No	1.0961307999678	0	568356	235
1111.111328125	1	health	trialStart	3	138	18	foodImage.5	FOODEEG_Images\0107.jpg	NY	Left	No	1.6756347999908	0	568890	251
1112.171875	2	health	foodImageDisplay	3	138	18	foodImage.5	FOODEEG_Images\0107.jpg	NY	Left	No	1.6756347999908	0	569433	252
1114.234375	1.6756347999908	health	choicePhaseStart	3	138	18	foodImage.5	FOODEEG_Images\0107.jpg	NY	Left	No	1.6756347999908	0	570489	253
1115.900390625	0	health	response	3	138	18	foodImage.5	FOODEEG_Images\0107.jpg	NY	Left	No	1.6756347999908	0	571342	234
1116.9453125	1	health	trialStart	3	139	19	foodImage.35	FOODEEG_Images\0350.jpg	NY	Left	No	0.69297629990615	0	571877	251
1117.994140625	2	health	foodImageDisplay	3	139	19	foodImage.35	FOODEEG_Images\0350.jpg	NY	Left	No	0.69297629990615	0	572414	252
1120.056640625	0.69297629990615	health	choicePhaseStart	3	139	19	foodImage.35	FOODEEG_Images\0350.jpg	NY	Left	No	0.69297629990615	0	573470	253
1120.740234375	0	health	response	3	139	19	foodImage.35	FOODEEG_Images\0350.jpg	NY	Left	No	0.69297629990615	0	573820	234
1121.783203125	1	decision	trialStart	3	140	20	foodImage.41	FOODEEG_Images\0409.jpg	YN	Left	Yes	1.06498559995089	0	574354	251
1122.830078125	2	decision	foodImageDisplay	3	140	20	foodImage.41	FOODEEG_Images\0409.jpg	YN	Left	Yes	1.06498559995089	0	574890	252
1124.892578125	1.06498559995089	decision	choicePhaseStart	3	140	20	foodImage.41	FOODEEG_Images\0409.jpg	YN	Left	Yes	1.06498559995089	0	575946	253
1125.94921875	0	decision	response	3	140	20	foodImage.41	FOODEEG_Images\0409.jpg	YN	Left	Yes	1.06498559995089	0	576487	234
1126.990234375	1	decision	trialStart	3	141	21	foodImage.106	FOODEEG_Images\0914.jpg	NY	Left	No	1.03484770003706	0	577020	251
1128.02734375	2	decision	foodImageDisplay	3	141	21	foodImage.106	FOODEEG_Images\0914.jpg	NY	Left	No	1.03484770003706	0	577551	252
1130.08984375	1.03484770003706	decision	choicePhaseStart	3	141	21	foodImage.106	FOODEEG_Images\0914.jpg	NY	Left	No	1.03484770003706	0	578607	253
1131.1171875	0	decision	response	3	141	21	foodImage.106	FOODEEG_Images\0914.jpg	NY	Left	No	1.03484770003706	0	579133	234
1132.158203125	1	health	trialStart	3	142	22	foodImage.12	FOODEEG_Images\0181.jpg	YN	Left	Yes	1.18198969995137	0	579666	251
1133.19921875	2	health	foodImageDisplay	3	142	22	foodImage.12	FOODEEG_Images\0181.jpg	YN	Left	Yes	1.18198969995137	0	580199	252
1135.26171875	1.18198969995137	health	choicePhaseStart	3	142	22	foodImage.12	FOODEEG_Images\0181.jpg	YN	Left	Yes	1.18198969995137	0	581255	253
1136.435546875	0	health	response	3	142	22	foodImage.12	FOODEEG_Images\0181.jpg	YN	Left	Yes	1.18198969995137	0	581856	234
1137.482421875	1	health	trialStart	3	143	23	foodImage.32	FOODEEG_Images\0319.jpg	NY	Right	Yes	1.63908120000269	0	582392	251
1138.52734375	2	health	foodImageDisplay	3	143	23	foodImage.32	FOODEEG_Images\0319.jpg	NY	Right	Yes	1.63908120000269	0	582927	252
1140.587890625	1.63908120000269	health	choicePhaseStart	3	143	23	foodImage.32	FOODEEG_Images\0319.jpg	NY	Right	Yes	1.63908120000269	0	583982	253
1142.220703125	0	health	response	3	143	23	foodImage.32	FOODEEG_Images\0319.jpg	NY	Right	Yes	1.63908120000269	0	584818	235
1143.26171875	1	decision	trialStart	3	144	24	foodImage.30	FOODEEG_Images\0282.jpg	YN	Left	Yes	1.06035729998257	0	585351	251
1144.3046875	2	decision	foodImageDisplay	3	144	24	foodImage.30	FOODEEG_Images\0282.jpg	YN	Left	Yes	1.06035729998257	0	585885	252
1146.3671875	1.06035729998257	decision	choicePhaseStart	3	144	24	foodImage.30	FOODEEG_Images\0282.jpg	YN	Left	Yes	1.06035729998257	0	586941	253
1147.419921875	0	decision	response	3	144	24	foodImage.30	FOODEEG_Images\0282.jpg	YN	Left	Yes	1.06035729998257	0	587480	234
1148.462890625	1	taste	trialStart	3	145	25	foodImage.63	FOODEEG_Images\0645.jpg	YN	Left	Yes	0.922498300089501	0	588014	251
1149.505859375	2	taste	foodImageDisplay	3	145	25	foodImage.63	FOODEEG_Images\0645.jpg	YN	Left	Yes	0.922498300089501	0	588548	252
1151.5703125	0.922498300089501	taste	choicePhaseStart	3	145	25	foodImage.63	FOODEEG_Images\0645.jpg	YN	Left	Yes	0.922498300089501	0	589605	253
1152.482421875	0	taste	response	3	145	25	foodImage.63	FOODEEG_Images\0645.jpg	YN	Left	Yes	0.922498300089501	0	590072	234
1153.52734375	1	taste	trialStart	3	146	26	foodImage.73	FOODEEG_Images\0717.jpg	NY	Right	Yes	1.90795509994496	0	590607	251
1154.583984375	2	taste	foodImageDisplay	3	146	26	foodImage.73	FOODEEG_Images\0717.jpg	NY	Right	Yes	1.90795509994496	0	591148	252
1156.6484375	1.90795509994496	taste	choicePhaseStart	3	146	26	foodImage.73	FOODEEG_Images\0717.jpg	NY	Right	Yes	1.90795509994496	0	592205	253
1158.546875	0	taste	response	3	146	26	foodImage.73	FOODEEG_Images\0717.jpg	NY	Right	Yes	1.90795509994496	0	593177	235
1159.58984375	1	health	trialStart	3	147	27	foodImage.68	FOODEEG_Images\0685.jpg	YN	Left	Yes	1.51517420005985	0	593711	251
1160.66796875	2	health	foodImageDisplay	3	147	27	foodImage.68	FOODEEG_Images\0685.jpg	YN	Left	Yes	1.51517420005985	0	594263	252
1162.73046875	1.51517420005985	health	choicePhaseStart	3	147	27	foodImage.68	FOODEEG_Images\0685.jpg	YN	Left	Yes	1.51517420005985	0	595319	253
1164.234375	0	health	response	3	147	27	foodImage.68	FOODEEG_Images\0685.jpg	YN	Left	Yes	1.51517420005985	0	596089	234
1165.279296875	1	health	trialStart	3	148	28	foodImage.44	FOODEEG_Images\0459.jpg	YN	Left	Yes	1.00241640000604	0	596624	251
1166.337890625	2	health	foodImageDisplay	3	148	28	foodImage.44	FOODEEG_Images\0459.jpg	YN	Left	Yes	1.00241640000604	0	597166	252
1168.400390625	1.00241640000604	health	choicePhaseStart	3	148	28	foodImage.44	FOODEEG_Images\0459.jpg	YN	Left	Yes	1.00241640000604	0	598222	253
1169.39453125	0	health	response	3	148	28	foodImage.44	FOODEEG_Images\0459.jpg	YN	Left	Yes	1.00241640000604	0	598731	234
1170.451171875	1	decision	trialStart	3	149	29	foodImage.86	FOODEEG_Images\0844.jpg	NY	Right	Yes	1.16895949991886	0	599272	251
1171.5078125	2	decision	foodImageDisplay	3	149	29	foodImage.86	FOODEEG_Images\0844.jpg	NY	Right	Yes	1.16895949991886	0	599813	252
1173.5703125	1.16895949991886	decision	choicePhaseStart	3	149	29	foodImage.86	FOODEEG_Images\0844.jpg	NY	Right	Yes	1.16895949991886	0	600869	253
1174.73046875	0	decision	response	3	149	29	foodImage.86	FOODEEG_Images\0844.jpg	NY	Right	Yes	1.16895949991886	0	601463	235
1175.7734375	1	taste	trialStart	3	150	30	foodImage.6	FOODEEG_Images\0113.jpg	YN	Left	Yes	0.880181300104596	0	601997	251
1176.814453125	2	taste	foodImageDisplay	3	150	30	foodImage.6	FOODEEG_Images\0113.jpg	YN	Left	Yes	0.880181300104596	0	602530	252
1178.876953125	0.880181300104596	taste	choicePhaseStart	3	150	30	foodImage.6	FOODEEG_Images\0113.jpg	YN	Left	Yes	0.880181300104596	0	603586	253
1179.74609375	0	taste	response	3	150	30	foodImage.6	FOODEEG_Images\0113.jpg	YN	Left	Yes	0.880181300104596	0	604031	234
1180.79296875	1	health	trialStart	3	151	31	foodImage.72	FOODEEG_Images\0714.jpg	YN	Right	No	1.88212520000525	0	604567	251
1181.8359375	2	health	foodImageDisplay	3	151	31	foodImage.72	FOODEEG_Images\0714.jpg	YN	Right	No	1.88212520000525	0	605101	252
1183.896484375	1.88212520000525	health	choicePhaseStart	3	151	31	foodImage.72	FOODEEG_Images\0714.jpg	YN	Right	No	1.88212520000525	0	606156	253
1185.76953125	0	health	response	3	151	31	foodImage.72	FOODEEG_Images\0714.jpg	YN	Right	No	1.88212520000525	0	607115	235
1186.8125	1	decision	trialStart	3	152	32	foodImage.111	FOODEEG_Images\0919.jpg	YN	Right	No	1.04067769995891	0	607649	251
1187.8515625	2	decision	foodImageDisplay	3	152	32	foodImage.111	FOODEEG_Images\0919.jpg	YN	Right	No	1.04067769995891	0	608181	252
1189.9140625	1.04067769995891	decision	choicePhaseStart	3	152	32	foodImage.111	FOODEEG_Images\0919.jpg	YN	Right	No	1.04067769995891	0	609237	253
1190.9453125	0	decision	response	3	152	32	foodImage.111	FOODEEG_Images\0919.jpg	YN	Right	No	1.04067769995891	0	609765	235
1191.9921875	1	taste	trialStart	3	153	33	foodImage.52	FOODEEG_Images\0539.jpg	YN	Left	Yes	0.75866789999418	0	610301	251
1193.052734375	2	taste	foodImageDisplay	3	153	33	foodImage.52	FOODEEG_Images\0539.jpg	YN	Left	Yes	0.75866789999418	0	610844	252
1195.115234375	0.75866789999418	taste	choicePhaseStart	3	153	33	foodImage.52	FOODEEG_Images\0539.jpg	YN	Left	Yes	0.75866789999418	0	611900	253
1195.865234375	0	taste	response	3	153	33	foodImage.52	FOODEEG_Images\0539.jpg	YN	Left	Yes	0.75866789999418	0	612284	234
1196.91015625	1	taste	trialStart	3	154	34	foodImage.82	FOODEEG_Images\0805.jpg	YN	Left	Yes	1.57290859997738	0	612819	251
1197.96484375	2	taste	foodImageDisplay	3	154	34	foodImage.82	FOODEEG_Images\0805.jpg	YN	Left	Yes	1.57290859997738	0	613359	252
1200.02734375	1.57290859997738	taste	choicePhaseStart	3	154	34	foodImage.82	FOODEEG_Images\0805.jpg	YN	Left	Yes	1.57290859997738	0	614415	253
1201.59375	0	taste	response	3	154	34	foodImage.82	FOODEEG_Images\0805.jpg	YN	Left	Yes	1.57290859997738	0	615217	234
1202.63671875	1	health	trialStart	3	155	35	foodImage.54	FOODEEG_Images\0560.jpg	YN	Left	Yes	1.56307519995607	0	615751	251
1203.6953125	2	health	foodImageDisplay	3	155	35	foodImage.54	FOODEEG_Images\0560.jpg	YN	Left	Yes	1.56307519995607	0	616293	252
1205.7578125	1.56307519995607	health	choicePhaseStart	3	155	35	foodImage.54	FOODEEG_Images\0560.jpg	YN	Left	Yes	1.56307519995607	0	617349	253
1207.3125	0	health	response	3	155	35	foodImage.54	FOODEEG_Images\0560.jpg	YN	Left	Yes	1.56307519995607	0	618145	234
1208.35546875	1	taste	trialStart	3	156	36	foodImage.33	FOODEEG_Images\0329.jpg	NY	Right	Yes	1.04526419995818	0	618679	251
1209.3984375	2	taste	foodImageDisplay	3	156	36	foodImage.33	FOODEEG_Images\0329.jpg	NY	Right	Yes	1.04526419995818	0	619213	252
1211.4609375	1.04526419995818	taste	choicePhaseStart	3	156	36	foodImage.33	FOODEEG_Images\0329.jpg	NY	Right	Yes	1.04526419995818	0	620269	253
1212.498046875	0	taste	response	3	156	36	foodImage.33	FOODEEG_Images\0329.jpg	NY	Right	Yes	1.04526419995818	0	620800	235
1213.54296875	1	health	trialStart	3	157	37	foodImage.118	FOODEEG_Images\0926.jpg	NY	Right	Yes	0.961375100072473	0	621335	251
1214.583984375	2	health	foodImageDisplay	3	157	37	foodImage.118	FOODEEG_Images\0926.jpg	NY	Right	Yes	0.961375100072473	0	621868	252
1216.6484375	0.961375100072473	health	choicePhaseStart	3	157	37	foodImage.118	FOODEEG_Images\0926.jpg	NY	Right	Yes	0.961375100072473	0	622925	253
1217.6015625	0	health	response	3	157	37	foodImage.118	FOODEEG_Images\0926.jpg	NY	Right	Yes	0.961375100072473	0	623413	235
1218.6484375	1	health	trialStart	3	158	38	foodImage.15	FOODEEG_Images\0189.jpg	YN	Right	No	2.14432780002244	0	623949	251
1219.70703125	2	health	foodImageDisplay	3	158	38	foodImage.15	FOODEEG_Images\0189.jpg	YN	Right	No	2.14432780002244	0	624491	252
1221.76953125	2.14432780002244	health	choicePhaseStart	3	158	38	foodImage.15	FOODEEG_Images\0189.jpg	YN	Right	No	2.14432780002244	0	625547	253
1223.904296875	0	health	response	3	158	38	foodImage.15	FOODEEG_Images\0189.jpg	YN	Right	No	2.14432780002244	0	626640	235
1224.947265625	1	decision	trialStart	3	159	39	foodImage.67	FOODEEG_Images\0679.jpg	YN	Right	No	1.72596349997912	0	627174	251
1226.00390625	2	decision	foodImageDisplay	3	159	39	foodImage.67	FOODEEG_Images\0679.jpg	YN	Right	No	1.72596349997912	0	627715	252
1228.06640625	1.72596349997912	decision	choicePhaseStart	3	159	39	foodImage.67	FOODEEG_Images\0679.jpg	YN	Right	No	1.72596349997912	0	628771	253
1229.78515625	0	decision	response	3	159	39	foodImage.67	FOODEEG_Images\0679.jpg	YN	Right	No	1.72596349997912	0	629651	235
1230.828125	1	health	trialStart	3	160	40	foodImage.18	FOODEEG_Images\0202.jpg	YN	Left	Yes	0.925889900070615	0	630185	251
1231.884765625	2	health	foodImageDisplay	3	160	40	foodImage.18	FOODEEG_Images\0202.jpg	YN	Left	Yes	0.925889900070615	0	630726	252
1233.947265625	0.925889900070615	health	choicePhaseStart	3	160	40	foodImage.18	FOODEEG_Images\0202.jpg	YN	Left	Yes	0.925889900070615	0	631782	253
1234.86328125	0	health	response	3	160	40	foodImage.18	FOODEEG_Images\0202.jpg	YN	Left	Yes	0.925889900070615	0	632251	234
1235.90625	1	health	trialStart	3	161	41	foodImage.99	FOODEEG_Images\0907.jpg	NY	Left	No	1.51971189992037	0	632785	251
1236.9453125	2	health	foodImageDisplay	3	161	41	foodImage.99	FOODEEG_Images\0907.jpg	NY	Left	No	1.51971189992037	0	633317	252
1239.0078125	1.51971189992037	health	choicePhaseStart	3	161	41	foodImage.99	FOODEEG_Images\0907.jpg	NY	Left	No	1.51971189992037	0	634373	253
1240.51953125	0	health	response	3	161	41	foodImage.99	FOODEEG_Images\0907.jpg	NY	Left	No	1.51971189992037	0	635147	234
1241.5625	1	taste	trialStart	3	162	42	foodImage.105	FOODEEG_Images\0913.jpg	NY	Left	No	1.26754040003289	0	635681	251
1242.599609375	2	taste	foodImageDisplay	3	162	42	foodImage.105	FOODEEG_Images\0913.jpg	NY	Left	No	1.26754040003289	0	636212	252
1244.662109375	1.26754040003289	taste	choicePhaseStart	3	162	42	foodImage.105	FOODEEG_Images\0913.jpg	NY	Left	No	1.26754040003289	0	637268	253
1245.919921875	0	taste	response	3	162	42	foodImage.105	FOODEEG_Images\0913.jpg	NY	Left	No	1.26754040003289	0	637912	234
1246.962890625	1	taste	trialStart	3	163	43	foodImage.85	FOODEEG_Images\0841.jpg	NY	Right	Yes	0.708372500026599	0	638446	251
1248.021484375	2	taste	foodImageDisplay	3	163	43	foodImage.85	FOODEEG_Images\0841.jpg	NY	Right	Yes	0.708372500026599	0	638988	252
1250.083984375	0.708372500026599	taste	choicePhaseStart	3	163	43	foodImage.85	FOODEEG_Images\0841.jpg	NY	Right	Yes	0.708372500026599	0	640044	253
1250.783203125	0	taste	response	3	163	43	foodImage.85	FOODEEG_Images\0841.jpg	NY	Right	Yes	0.708372500026599	0	640402	235
1251.826171875	1	health	trialStart	3	164	44	foodImage.113	FOODEEG_Images\0921.jpg	YN	Left	Yes	1.12168229999952	0	640936	251
1252.86328125	2	health	foodImageDisplay	3	164	44	foodImage.113	FOODEEG_Images\0921.jpg	YN	Left	Yes	1.12168229999952	0	641467	252
1254.92578125	1.12168229999952	health	choicePhaseStart	3	164	44	foodImage.113	FOODEEG_Images\0921.jpg	YN	Left	Yes	1.12168229999952	0	642523	253
1256.0390625	0	health	response	3	164	44	foodImage.113	FOODEEG_Images\0921.jpg	YN	Left	Yes	1.12168229999952	0	643093	234
1257.083984375	1	health	trialStart	3	165	45	foodImage.20	FOODEEG_Images\0226.jpg	NY	Left	No	1.28289020003285	0	643628	251
1258.125	2	health	foodImageDisplay	3	165	45	foodImage.20	FOODEEG_Images\0226.jpg	NY	Left	No	1.28289020003285	0	644161	252
1260.189453125	1.28289020003285	health	choicePhaseStart	3	165	45	foodImage.20	FOODEEG_Images\0226.jpg	NY	Left	No	1.28289020003285	0	645218	253
1261.462890625	0	health	response	3	165	45	foodImage.20	FOODEEG_Images\0226.jpg	NY	Left	No	1.28289020003285	0	645870	234
1262.505859375	1	health	trialStart	3	166	46	foodImage.97	FOODEEG_Images\0905.jpg	YN	Right	No	1.49479789996985	0	646404	251
1263.546875	2	health	foodImageDisplay	3	166	46	foodImage.97	FOODEEG_Images\0905.jpg	YN	Right	No	1.49479789996985	0	646937	252
1265.609375	1.49479789996985	health	choicePhaseStart	3	166	46	foodImage.97	FOODEEG_Images\0905.jpg	YN	Right	No	1.49479789996985	0	647993	253
1267.095703125	0	health	response	3	166	46	foodImage.97	FOODEEG_Images\0905.jpg	YN	Right	No	1.49479789996985	0	648754	235
1268.13671875	1	decision	trialStart	3	167	47	foodImage.54	FOODEEG_Images\0560.jpg	YN	Left	Yes	1.52797679998912	0	649287	251
1269.193359375	2	decision	foodImageDisplay	3	167	47	foodImage.54	FOODEEG_Images\0560.jpg	YN	Left	Yes	1.52797679998912	0	649828	252
1271.255859375	1.52797679998912	decision	choicePhaseStart	3	167	47	foodImage.54	FOODEEG_Images\0560.jpg	YN	Left	Yes	1.52797679998912	0	650884	253
1272.775390625	0	decision	response	3	167	47	foodImage.54	FOODEEG_Images\0560.jpg	YN	Left	Yes	1.52797679998912	0	651662	234
1273.818359375	1	health	trialStart	3	168	48	foodImage.6	FOODEEG_Images\0113.jpg	NY	Left	No	0.993114700075239	0	652196	251
1274.859375	2	health	foodImageDisplay	3	168	48	foodImage.6	FOODEEG_Images\0113.jpg	NY	Left	No	0.993114700075239	0	652729	252
1276.92578125	0.993114700075239	health	choicePhaseStart	3	168	48	foodImage.6	FOODEEG_Images\0113.jpg	NY	Left	No	0.993114700075239	0	653787	253
1277.91015625	0	health	response	3	168	48	foodImage.6	FOODEEG_Images\0113.jpg	NY	Left	No	0.993114700075239	0	654291	234
1278.953125	1	health	trialStart	3	169	49	foodImage.19	FOODEEG_Images\0225.jpg	YN	Left	Yes	1.01022709999233	0	654825	251
1279.998046875	2	health	foodImageDisplay	3	169	49	foodImage.19	FOODEEG_Images\0225.jpg	YN	Left	Yes	1.01022709999233	0	655360	252
1282.060546875	1.01022709999233	health	choicePhaseStart	3	169	49	foodImage.19	FOODEEG_Images\0225.jpg	YN	Left	Yes	1.01022709999233	0	656416	253
1283.0625	0	health	response	3	169	49	foodImage.19	FOODEEG_Images\0225.jpg	YN	Left	Yes	1.01022709999233	0	656929	234
1284.10546875	1	health	trialStart	3	170	50	foodImage.29	FOODEEG_Images\0278.jpg	NY	Right	Yes	0.972244999953546	0	657463	251
1285.15234375	2	health	foodImageDisplay	3	170	50	foodImage.29	FOODEEG_Images\0278.jpg	NY	Right	Yes	0.972244999953546	0	657999	252
1287.21875	0.972244999953546	health	choicePhaseStart	3	170	50	foodImage.29	FOODEEG_Images\0278.jpg	NY	Right	Yes	0.972244999953546	0	659057	253
1288.181640625	0	health	response	3	170	50	foodImage.29	FOODEEG_Images\0278.jpg	NY	Right	Yes	0.972244999953546	0	659550	235
1289.224609375	1	taste	trialStart	3	171	51	foodImage.54	FOODEEG_Images\0560.jpg	YN	Left	Yes	0.822979800053872	0	660084	251
1290.28125	2	taste	foodImageDisplay	3	171	51	foodImage.54	FOODEEG_Images\0560.jpg	YN	Left	Yes	0.822979800053872	0	660625	252
1292.34375	0.822979800053872	taste	choicePhaseStart	3	171	51	foodImage.54	FOODEEG_Images\0560.jpg	YN	Left	Yes	0.822979800053872	0	661681	253
1293.158203125	0	taste	response	3	171	51	foodImage.54	FOODEEG_Images\0560.jpg	YN	Left	Yes	0.822979800053872	0	662098	234
1294.201171875	1	taste	trialStart	3	172	52	foodImage.55	FOODEEG_Images\0567.jpg	NY	Right	Yes	0.760297500062734	0	662632	251
1295.255859375	2	taste	foodImageDisplay	3	172	52	foodImage.55	FOODEEG_Images\0567.jpg	NY	Right	Yes	0.760297500062734	0	663172	252
1297.318359375	0.760297500062734	taste	choicePhaseStart	3	172	52	foodImage.55	FOODEEG_Images\0567.jpg	NY	Right	Yes	0.760297500062734	0	664228	253
1298.0703125	0	taste	response	3	172	52	foodImage.55	FOODEEG_Images\0567.jpg	NY	Right	Yes	0.760297500062734	0	664613	235
1299.11328125	1	decision	trialStart	3	173	53	foodImage.43	FOODEEG_Images\0445.jpg	NY	Left	No	2.28685639996547	0	665147	251
1300.16796875	2	decision	foodImageDisplay	3	173	53	foodImage.43	FOODEEG_Images\0445.jpg	NY	Left	No	2.28685639996547	0	665687	252
1302.23046875	2.28685639996547	decision	choicePhaseStart	3	173	53	foodImage.43	FOODEEG_Images\0445.jpg	NY	Left	No	2.28685639996547	0	666743	253
1304.509765625	0	decision	response	3	173	53	foodImage.43	FOODEEG_Images\0445.jpg	NY	Left	No	2.28685639996547	0	667910	234
1305.552734375	1	taste	trialStart	3	174	54	foodImage.98	FOODEEG_Images\0906.jpg	NY	Right	Yes	0.990927099948749	0	668444	251
1306.591796875	2	taste	foodImageDisplay	3	174	54	foodImage.98	FOODEEG_Images\0906.jpg	NY	Right	Yes	0.990927099948749	0	668976	252
1308.654296875	0.990927099948749	taste	choicePhaseStart	3	174	54	foodImage.98	FOODEEG_Images\0906.jpg	NY	Right	Yes	0.990927099948749	0	670032	253
1309.63671875	0	taste	response	3	174	54	foodImage.98	FOODEEG_Images\0906.jpg	NY	Right	Yes	0.990927099948749	0	670535	235
1310.68359375	1	taste	trialStart	3	175	55	foodImage.50	FOODEEG_Images\0529.jpg	YN	Left	Yes	1.00865370000247	0	671071	251
1311.751953125	2	taste	foodImageDisplay	3	175	55	foodImage.50	FOODEEG_Images\0529.jpg	YN	Left	Yes	1.00865370000247	0	671618	252
1313.814453125	1.00865370000247	taste	choicePhaseStart	3	175	55	foodImage.50	FOODEEG_Images\0529.jpg	YN	Left	Yes	1.00865370000247	0	672674	253
1314.8125	0	taste	response	3	175	55	foodImage.50	FOODEEG_Images\0529.jpg	YN	Left	Yes	1.00865370000247	0	673185	234
1315.85546875	1	taste	trialStart	3	176	56	foodImage.68	FOODEEG_Images\0685.jpg	YN	Left	Yes	0.755339900031686	0	673719	251
1316.94921875	2	taste	foodImageDisplay	3	176	56	foodImage.68	FOODEEG_Images\0685.jpg	YN	Left	Yes	0.755339900031686	0	674279	252
1319.01171875	0.755339900031686	taste	choicePhaseStart	3	176	56	foodImage.68	FOODEEG_Images\0685.jpg	YN	Left	Yes	0.755339900031686	0	675335	253
1319.755859375	0	taste	response	3	176	56	foodImage.68	FOODEEG_Images\0685.jpg	YN	Left	Yes	0.755339900031686	0	675716	234
1320.802734375	1	health	trialStart	3	177	57	foodImage.71	FOODEEG_Images\0713.jpg	NY	Left	No	1.38571770000271	0	676252	251
1321.845703125	2	health	foodImageDisplay	3	177	57	foodImage.71	FOODEEG_Images\0713.jpg	NY	Left	No	1.38571770000271	0	676786	252
1323.908203125	1.38571770000271	health	choicePhaseStart	3	177	57	foodImage.71	FOODEEG_Images\0713.jpg	NY	Left	No	1.38571770000271	0	677842	253
1325.28515625	0	health	response	3	177	57	foodImage.71	FOODEEG_Images\0713.jpg	NY	Left	No	1.38571770000271	0	678547	234
1326.326171875	1	health	trialStart	3	178	58	foodImage.45	FOODEEG_Images\0478.jpg	YN	Left	Yes	0.794531400082633	0	679080	251
1327.37109375	2	health	foodImageDisplay	3	178	58	foodImage.45	FOODEEG_Images\0478.jpg	YN	Left	Yes	0.794531400082633	0	679615	252
1329.43359375	0.794531400082633	health	choicePhaseStart	3	178	58	foodImage.45	FOODEEG_Images\0478.jpg	YN	Left	Yes	0.794531400082633	0	680671	253
1330.220703125	0	health	response	3	178	58	foodImage.45	FOODEEG_Images\0478.jpg	YN	Left	Yes	0.794531400082633	0	681074	234
1331.263671875	1	health	trialStart	3	179	59	foodImage.9	FOODEEG_Images\0138.jpg	NY	Left	No	1.6848852999974	0	681608	251
1332.322265625	2	health	foodImageDisplay	3	179	59	foodImage.9	FOODEEG_Images\0138.jpg	NY	Left	No	1.6848852999974	0	682150	252
1334.384765625	1.6848852999974	health	choicePhaseStart	3	179	59	foodImage.9	FOODEEG_Images\0138.jpg	NY	Left	No	1.6848852999974	0	683206	253
1336.060546875	0	health	response	3	179	59	foodImage.9	FOODEEG_Images\0138.jpg	NY	Left	No	1.6848852999974	0	684064	234
1337.1015625	1	health	trialStart	3	180	60	foodImage.53	FOODEEG_Images\0547.jpg	YN	Right	No	0.896625300054438	0	684597	251
1338.16015625	2	health	foodImageDisplay	3	180	60	foodImage.53	FOODEEG_Images\0547.jpg	YN	Right	No	0.896625300054438	0	685139	252
1340.220703125	0.896625300054438	health	choicePhaseStart	3	180	60	foodImage.53	FOODEEG_Images\0547.jpg	YN	Right	No	0.896625300054438	0	686194	253
1341.109375	0	health	response	3	180	60	foodImage.53	FOODEEG_Images\0547.jpg	YN	Right	No	0.896625300054438	0	686649	235
1343.150390625	31.69921875	n/a	blockEnd	n/a	n/a	n/a	n/a	n/a	n/a	n/a	n/a	n/a	n/a	687694	254
1374.849609375	2	n/a	blockStart	4	n/a	n/a	n/a	n/a	n/a	n/a	n/a	n/a	n/a	703924	250
1376.884765625	1	taste	trialStart	4	181	1	foodImage.2	FOODEEG_Images\0028.jpg	NY	Right	Yes	0.777321100002155	0	704966	251
1377.9296875	2	taste	foodImageDisplay	4	181	1	foodImage.2	FOODEEG_Images\0028.jpg	NY	Right	Yes	0.777321100002155	0	705501	252
1379.994140625	0.777321100002155	taste	choicePhaseStart	4	181	1	foodImage.2	FOODEEG_Images\0028.jpg	NY	Right	Yes	0.777321100002155	0	706558	253
1380.76171875	0	taste	response	4	181	1	foodImage.2	FOODEEG_Images\0028.jpg	NY	Right	Yes	0.777321100002155	0	706951	235
1381.806640625	1	decision	trialStart	4	182	2	foodImage.29	FOODEEG_Images\0278.jpg	NY	Right	Yes	1.587096100091	0	707486	251
1382.84765625	2	decision	foodImageDisplay	4	182	2	foodImage.29	FOODEEG_Images\0278.jpg	NY	Right	Yes	1.587096100091	0	708019	252
1384.91015625	1.587096100091	decision	choicePhaseStart	4	182	2	foodImage.29	FOODEEG_Images\0278.jpg	NY	Right	Yes	1.587096100091	0	709075	253
1386.490234375	0	decision	response	4	182	2	foodImage.29	FOODEEG_Images\0278.jpg	NY	Right	Yes	1.587096100091	0	709884	235
1387.533203125	1	health	trialStart	4	183	3	foodImage.66	FOODEEG_Images\0676.jpg	NY	Left	No	1.37376550002955	0	710418	251
1388.57421875	2	health	foodImageDisplay	4	183	3	foodImage.66	FOODEEG_Images\0676.jpg	NY	Left	No	1.37376550002955	0	710951	252
1390.63671875	1.37376550002955	health	choicePhaseStart	4	183	3	foodImage.66	FOODEEG_Images\0676.jpg	NY	Left	No	1.37376550002955	0	712007	253
1392.001953125	0	health	response	4	183	3	foodImage.66	FOODEEG_Images\0676.jpg	NY	Left	No	1.37376550002955	0	712706	234
1393.044921875	1	taste	trialStart	4	184	4	foodImage.19	FOODEEG_Images\0225.jpg	NY	Right	Yes	1.03620119998232	0	713240	251
1394.087890625	2	taste	foodImageDisplay	4	184	4	foodImage.19	FOODEEG_Images\0225.jpg	NY	Right	Yes	1.03620119998232	0	713774	252
1396.150390625	1.03620119998232	taste	choicePhaseStart	4	184	4	foodImage.19	FOODEEG_Images\0225.jpg	NY	Right	Yes	1.03620119998232	0	714830	253
1397.177734375	0	taste	response	4	184	4	foodImage.19	FOODEEG_Images\0225.jpg	NY	Right	Yes	1.03620119998232	0	715356	235
1398.220703125	1	taste	trialStart	4	185	5	foodImage.89	FOODEEG_Images\0881.jpg	YN	Left	Yes	0.838922800030559	0	715890	251
1399.27734375	2	taste	foodImageDisplay	4	185	5	foodImage.89	FOODEEG_Images\0881.jpg	YN	Left	Yes	0.838922800030559	0	716431	252
1401.33984375	0.838922800030559	taste	choicePhaseStart	4	185	5	foodImage.89	FOODEEG_Images\0881.jpg	YN	Left	Yes	0.838922800030559	0	717487	253
1402.169921875	0	taste	response	4	185	5	foodImage.89	FOODEEG_Images\0881.jpg	YN	Left	Yes	0.838922800030559	0	717912	234
1403.212890625	1	taste	trialStart	4	186	6	foodImage.114	FOODEEG_Images\0922.jpg	YN	Left	Yes	0.959432099945843	0	718446	251
1404.251953125	2	taste	foodImageDisplay	4	186	6	foodImage.114	FOODEEG_Images\0922.jpg	YN	Left	Yes	0.959432099945843	0	718978	252
1406.314453125	0.959432099945843	taste	choicePhaseStart	4	186	6	foodImage.114	FOODEEG_Images\0922.jpg	YN	Left	Yes	0.959432099945843	0	720034	253
1407.265625	0	taste	response	4	186	6	foodImage.114	FOODEEG_Images\0922.jpg	YN	Left	Yes	0.959432099945843	0	720521	234
1408.310546875	1	decision	trialStart	4	187	7	foodImage.99	FOODEEG_Images\0907.jpg	NY	Right	Yes	0.959871900035068	0	721056	251
1409.34765625	2	decision	foodImageDisplay	4	187	7	foodImage.99	FOODEEG_Images\0907.jpg	NY	Right	Yes	0.959871900035068	0	721587	252
1411.41015625	0.959871900035068	decision	choicePhaseStart	4	187	7	foodImage.99	FOODEEG_Images\0907.jpg	NY	Right	Yes	0.959871900035068	0	722643	253
1412.361328125	0	decision	response	4	187	7	foodImage.99	FOODEEG_Images\0907.jpg	NY	Right	Yes	0.959871900035068	0	723130	235
1413.40625	1	health	trialStart	4	188	8	foodImage.60	FOODEEG_Images\0614.jpg	YN	Left	Yes	1.00537260004785	0	723665	251
1414.462890625	2	health	foodImageDisplay	4	188	8	foodImage.60	FOODEEG_Images\0614.jpg	YN	Left	Yes	1.00537260004785	0	724206	252
1416.525390625	1.00537260004785	health	choicePhaseStart	4	188	8	foodImage.60	FOODEEG_Images\0614.jpg	YN	Left	Yes	1.00537260004785	0	725262	253
1417.521484375	0	health	response	4	188	8	foodImage.60	FOODEEG_Images\0614.jpg	YN	Left	Yes	1.00537260004785	0	725772	234
1418.564453125	1	health	trialStart	4	189	9	foodImage.55	FOODEEG_Images\0567.jpg	YN	Left	Yes	1.08610580000095	0	726306	251
1419.619140625	2	health	foodImageDisplay	4	189	9	foodImage.55	FOODEEG_Images\0567.jpg	YN	Left	Yes	1.08610580000095	0	726846	252
1421.681640625	1.08610580000095	health	choicePhaseStart	4	189	9	foodImage.55	FOODEEG_Images\0567.jpg	YN	Left	Yes	1.08610580000095	0	727902	253
1422.76171875	0	health	response	4	189	9	foodImage.55	FOODEEG_Images\0567.jpg	YN	Left	Yes	1.08610580000095	0	728455	234
1423.802734375	1	decision	trialStart	4	190	10	foodImage.19	FOODEEG_Images\0225.jpg	NY	Right	Yes	1.51760080002714	0	728988	251
1424.845703125	2	decision	foodImageDisplay	4	190	10	foodImage.19	FOODEEG_Images\0225.jpg	NY	Right	Yes	1.51760080002714	0	729522	252
1426.908203125	1.51760080002714	decision	choicePhaseStart	4	190	10	foodImage.19	FOODEEG_Images\0225.jpg	NY	Right	Yes	1.51760080002714	0	730578	253
1428.416015625	0	decision	response	4	190	10	foodImage.19	FOODEEG_Images\0225.jpg	NY	Right	Yes	1.51760080002714	0	731350	235
1429.458984375	1	health	trialStart	4	191	11	foodImage.67	FOODEEG_Images\0679.jpg	NY	Right	Yes	1.0308649999788	0	731884	251
1430.515625	2	health	foodImageDisplay	4	191	11	foodImage.67	FOODEEG_Images\0679.jpg	NY	Right	Yes	1.0308649999788	0	732425	252
1432.578125	1.0308649999788	health	choicePhaseStart	4	191	11	foodImage.67	FOODEEG_Images\0679.jpg	NY	Right	Yes	1.0308649999788	0	733481	253
1433.6015625	0	health	response	4	191	11	foodImage.67	FOODEEG_Images\0679.jpg	NY	Right	Yes	1.0308649999788	0	734005	235
1434.642578125	1	taste	trialStart	4	192	12	foodImage.47	FOODEEG_Images\0488.jpg	YN	Left	Yes	0.829547700006515	0	734538	251
1435.68359375	2	taste	foodImageDisplay	4	192	12	foodImage.47	FOODEEG_Images\0488.jpg	YN	Left	Yes	0.829547700006515	0	735071	252
1437.748046875	0.829547700006515	taste	choicePhaseStart	4	192	12	foodImage.47	FOODEEG_Images\0488.jpg	YN	Left	Yes	0.829547700006515	0	736128	253
1438.568359375	0	taste	response	4	192	12	foodImage.47	FOODEEG_Images\0488.jpg	YN	Left	Yes	0.829547700006515	0	736548	234
1439.61328125	1	taste	trialStart	4	193	13	foodImage.37	FOODEEG_Images\0359.jpg	YN	Left	Yes	1.20523469999898	0	737083	251
1440.654296875	2	taste	foodImageDisplay	4	193	13	foodImage.37	FOODEEG_Images\0359.jpg	YN	Left	Yes	1.20523469999898	0	737616	252
