onset	duration	trial_type	event_type	block	trial_total	trial_in_block	food_image_code	food_image_path	button_position	resp_position	resp_choice	choice_rt	resp_too_slow	sample	trigger
259.46875	2	n/a	blockStart	1	n/a	n/a	n/a	n/a	n/a	n/a	n/a	n/a	n/a	132849	250
261.505859375	1	decision	trialStart	1	1	1	foodImage.69	FOODEEG_Images\0693.jpg	NY	Right	Yes	5.736387400073	1	133892	251
262.5703125	2	decision	foodImageDisplay	1	1	1	foodImage.69	FOODEEG_Images\0693.jpg	NY	Right	Yes	5.736387400073	1	134437	252
264.634765625	5.736387400073	decision	choicePhaseStart	1	1	1	foodImage.69	FOODEEG_Images\0693.jpg	NY	Right	Yes	5.736387400073	1	135494	253
270.365234375	0	decision	response	1	1	1	foodImage.69	FOODEEG_Images\0693.jpg	NY	Right	Yes	5.736387400073	1	138428	235
271.5	1	decision	trialStart	1	2	2	foodImage.76	FOODEEG_Images\0766.jpg	YN	Left	Yes	1.77566919999663	0	139009	251
272.548828125	2	decision	foodImageDisplay	1	2	2	foodImage.76	FOODEEG_Images\0766.jpg	YN	Left	Yes	1.77566919999663	0	139546	252
274.611328125	1.77566919999663	decision	choicePhaseStart	1	2	2	foodImage.76	FOODEEG_Images\0766.jpg	YN	Left	Yes	1.77566919999663	0	140602	253
276.37890625	0	decision	response	1	2	2	foodImage.76	FOODEEG_Images\0766.jpg	YN	Left	Yes	1.77566919999663	0	141507	234
277.4296875	1	decision	trialStart	1	3	3	foodImage.82	FOODEEG_Images\0805.jpg	YN	Left	Yes	1.02303589996882	0	142045	251
278.501953125	2	decision	foodImageDisplay	1	3	3	foodImage.82	FOODEEG_Images\0805.jpg	YN	Left	Yes	1.02303589996882	0	142594	252
280.56640625	1.02303589996882	decision	choicePhaseStart	1	3	3	foodImage.82	FOODEEG_Images\0805.jpg	YN	Left	Yes	1.02303589996882	0	143651	253
281.580078125	0	decision	response	1	3	3	foodImage.82	FOODEEG_Images\0805.jpg	YN	Left	Yes	1.02303589996882	0	144170	234
282.625	1	health	trialStart	1	4	4	foodImage.45	FOODEEG_Images\0478.jpg	YN	Left	Yes	0.997374900034629	0	144705	251
283.671875	2	health	foodImageDisplay	1	4	4	foodImage.45	FOODEEG_Images\0478.jpg	YN	Left	Yes	0.997374900034629	0	145241	252
285.734375	0.997374900034629	health	choicePhaseStart	1	4	4	foodImage.45	FOODEEG_Images\0478.jpg	YN	Left	Yes	0.997374900034629	0	146297	253
286.72265625	0	health	response	1	4	4	foodImage.45	FOODEEG_Images\0478.jpg	YN	Left	Yes	0.997374900034629	0	146803	234
287.765625	1	taste	trialStart	1	5	5	foodImage.110	FOODEEG_Images\0918.jpg	YN	Right	No	1.99116069998126	0	147337	251
288.810546875	2	taste	foodImageDisplay	1	5	5	foodImage.110	FOODEEG_Images\0918.jpg	YN	Right	No	1.99116069998126	0	147872	252
290.876953125	1.99116069998126	taste	choicePhaseStart	1	5	5	foodImage.110	FOODEEG_Images\0918.jpg	YN	Right	No	1.99116069998126	0	148930	253
292.859375	0	taste	response	1	5	5	foodImage.110	FOODEEG_Images\0918.jpg	YN	Right	No	1.99116069998126	0	149945	235
293.91015625	1	taste	trialStart	1	6	6	foodImage.113	FOODEEG_Images\0921.jpg	NY	Right	Yes	1.25629300007131	0	150483	251
294.94921875	2	taste	foodImageDisplay	1	6	6	foodImage.113	FOODEEG_Images\0921.jpg	NY	Right	Yes	1.25629300007131	0	151015	252
297.01171875	1.25629300007131	taste	choicePhaseStart	1	6	6	foodImage.113	FOODEEG_Images\0921.jpg	NY	Right	Yes	1.25629300007131	0	152071	253
298.259765625	0	taste	response	1	6	6	foodImage.113	FOODEEG_Images\0921.jpg	NY	Right	Yes	1.25629300007131	0	152710	235
299.30078125	1	decision	trialStart	1	7	7	foodImage.87	FOODEEG_Images\0873.jpg	NY	Right	Yes	1.33190579991788	0	153243	251
300.359375	2	decision	foodImageDisplay	1	7	7	foodImage.87	FOODEEG_Images\0873.jpg	NY	Right	Yes	1.33190579991788	0	153785	252
302.423828125	1.33190579991788	decision	choicePhaseStart	1	7	7	foodImage.87	FOODEEG_Images\0873.jpg	NY	Right	Yes	1.33190579991788	0	154842	253
303.74609375	0	decision	response	1	7	7	foodImage.87	FOODEEG_Images\0873.jpg	NY	Right	Yes	1.33190579991788	0	155519	235
304.7890625	1	health	trialStart	1	8	8	foodImage.38	FOODEEG_Images\0365.jpg	NY	Right	Yes	1.008327400079	0	156053	251
305.828125	2	health	foodImageDisplay	1	8	8	foodImage.38	FOODEEG_Images\0365.jpg	NY	Right	Yes	1.008327400079	0	156585	252
307.890625	1.008327400079	health	choicePhaseStart	1	8	8	foodImage.38	FOODEEG_Images\0365.jpg	NY	Right	Yes	1.008327400079	0	157641	253
308.890625	0	health	response	1	8	8	foodImage.38	FOODEEG_Images\0365.jpg	NY	Right	Yes	1.008327400079	0	158153	235
309.931640625	1	taste	trialStart	1	9	9	foodImage.86	FOODEEG_Images\0844.jpg	YN	Left	Yes	1.09855890006293	0	158686	251
310.9921875	2	taste	foodImageDisplay	1	9	9	foodImage.86	FOODEEG_Images\0844.jpg	YN	Left	Yes	1.09855890006293	0	159229	252
313.0546875	1.09855890006293	taste	choicePhaseStart	1	9	9	foodImage.86	FOODEEG_Images\0844.jpg	YN	Left	Yes	1.09855890006293	0	160285	253
314.146484375	0	taste	response	1	9	9	foodImage.86	FOODEEG_Images\0844.jpg	YN	Left	Yes	1.09855890006293	0	160844	234
315.189453125	1	decision	trialStart	1	10	10	foodImage.84	FOODEEG_Images\0830.jpg	NY	Right	Yes	0.920812499942258	0	161378	251
316.24609375	2	decision	foodImageDisplay	1	10	10	foodImage.84	FOODEEG_Images\0830.jpg	NY	Right	Yes	0.920812499942258	0	161919	252
318.310546875	0.920812499942258	decision	choicePhaseStart	1	10	10	foodImage.84	FOODEEG_Images\0830.jpg	NY	Right	Yes	0.920812499942258	0	162976	253
319.2265625	0	decision	response	1	10	10	foodImage.84	FOODEEG_Images\0830.jpg	NY	Right	Yes	0.920812499942258	0	163445	235
320.26953125	1	health	trialStart	1	11	11	foodImage.20	FOODEEG_Images\0226.jpg	YN	Left	Yes	1.00336660002358	0	163979	251
321.3125	2	health	foodImageDisplay	1	11	11	foodImage.20	FOODEEG_Images\0226.jpg	YN	Left	Yes	1.00336660002358	0	164513	252
323.376953125	1.00336660002358	health	choicePhaseStart	1	11	11	foodImage.20	FOODEEG_Images\0226.jpg	YN	Left	Yes	1.00336660002358	0	165570	253
324.37109375	0	health	response	1	11	11	foodImage.20	FOODEEG_Images\0226.jpg	YN	Left	Yes	1.00336660002358	0	166079	234
325.4140625	1	health	trialStart	1	12	12	foodImage.6	FOODEEG_Images\0113.jpg	YN	Right	No	1.01054840011057	0	166613	251
326.45703125	2	health	foodImageDisplay	1	12	12	foodImage.6	FOODEEG_Images\0113.jpg	YN	Right	No	1.01054840011057	0	167147	252
328.51953125	1.01054840011057	health	choicePhaseStart	1	12	12	foodImage.6	FOODEEG_Images\0113.jpg	YN	Right	No	1.01054840011057	0	168203	253
329.521484375	0	health	response	1	12	12	foodImage.6	FOODEEG_Images\0113.jpg	YN	Right	No	1.01054840011057	0	168716	235
330.564453125	1	decision	trialStart	1	13	13	foodImage.96	FOODEEG_Images\0904.jpg	NY	Right	Yes	1.23089870007243	0	169250	251
331.603515625	2	decision	foodImageDisplay	1	13	13	foodImage.96	FOODEEG_Images\0904.jpg	NY	Right	Yes	1.23089870007243	0	169782	252
333.66796875	1.23089870007243	decision	choicePhaseStart	1	13	13	foodImage.96	FOODEEG_Images\0904.jpg	NY	Right	Yes	1.23089870007243	0	170839	253
334.888671875	0	decision	response	1	13	13	foodImage.96	FOODEEG_Images\0904.jpg	NY	Right	Yes	1.23089870007243	0	171464	235
335.931640625	1	health	trialStart	1	14	14	foodImage.36	FOODEEG_Images\0352.jpg	NY	Right	Yes	1.43495530006476	0	171998	251
336.990234375	2	health	foodImageDisplay	1	14	14	foodImage.36	FOODEEG_Images\0352.jpg	NY	Right	Yes	1.43495530006476	0	172540	252
339.0546875	1.43495530006476	health	choicePhaseStart	1	14	14	foodImage.36	FOODEEG_Images\0352.jpg	NY	Right	Yes	1.43495530006476	0	173597	253
340.48046875	0	health	response	1	14	14	foodImage.36	FOODEEG_Images\0352.jpg	NY	Right	Yes	1.43495530006476	0	174327	235
341.5234375	1	decision	trialStart	1	15	15	foodImage.17	FOODEEG_Images\0199.jpg	YN	Left	Yes	1.39027149998583	0	174861	251
342.580078125	2	decision	foodImageDisplay	1	15	15	foodImage.17	FOODEEG_Images\0199.jpg	YN	Left	Yes	1.39027149998583	0	175402	252
344.642578125	1.39027149998583	decision	choicePhaseStart	1	15	15	foodImage.17	FOODEEG_Images\0199.jpg	YN	Left	Yes	1.39027149998583	0	176458	253
346.025390625	0	decision	response	1	15	15	foodImage.17	FOODEEG_Images\0199.jpg	YN	Left	Yes	1.39027149998583	0	177166	234
347.068359375	1	health	trialStart	1	16	16	foodImage.48	FOODEEG_Images\0494.jpg	YN	Right	No	0.702536300057545	0	177700	251
348.109375	2	health	foodImageDisplay	1	16	16	foodImage.48	FOODEEG_Images\0494.jpg	YN	Right	No	0.702536300057545	0	178233	252
350.171875	0.702536300057545	health	choicePhaseStart	1	16	16	foodImage.48	FOODEEG_Images\0494.jpg	YN	Right	No	0.702536300057545	0	179289	253
350.865234375	0	health	response	1	16	16	foodImage.48	FOODEEG_Images\0494.jpg	YN	Right	No	0.702536300057545	0	179644	235
351.904296875	1	decision	trialStart	1	17	17	foodImage.89	FOODEEG_Images\0881.jpg	YN	Left	Yes	7.6116421999177	1	180176	251
352.958984375	2	decision	foodImageDisplay	1	17	17	foodImage.89	FOODEEG_Images\0881.jpg	YN	Left	Yes	7.6116421999177	1	180716	252
355.02734375	7.6116421999177	decision	choicePhaseStart	1	17	17	foodImage.89	FOODEEG_Images\0881.jpg	YN	Left	Yes	7.6116421999177	1	181775	253
362.6328125	0	decision	response	1	17	17	foodImage.89	FOODEEG_Images\0881.jpg	YN	Left	Yes	7.6116421999177	1	185669	234
363.67578125	1	taste	trialStart	1	18	18	foodImage.12	FOODEEG_Images\0181.jpg	NY	Right	Yes	1.55392340000253	0	186203	251
364.71875	2	taste	foodImageDisplay	1	18	18	foodImage.12	FOODEEG_Images\0181.jpg	NY	Right	Yes	1.55392340000253	0	186737	252
366.783203125	1.55392340000253	taste	choicePhaseStart	1	18	18	foodImage.12	FOODEEG_Images\0181.jpg	NY	Right	Yes	1.55392340000253	0	187794	253
368.328125	0	taste	response	1	18	18	foodImage.12	FOODEEG_Images\0181.jpg	NY	Right	Yes	1.55392340000253	0	188585	235
369.3671875	1	taste	trialStart	1	19	19	foodImage.97	FOODEEG_Images\0905.jpg	NY	Left	No	1.04734090005513	0	189117	251
370.408203125	2	taste	foodImageDisplay	1	19	19	foodImage.97	FOODEEG_Images\0905.jpg	NY	Left	No	1.04734090005513	0	189650	252
372.47265625	1.04734090005513	taste	choicePhaseStart	1	19	19	foodImage.97	FOODEEG_Images\0905.jpg	NY	Left	No	1.04734090005513	0	190707	253
373.51171875	0	taste	response	1	19	19	foodImage.97	FOODEEG_Images\0905.jpg	NY	Left	No	1.04734090005513	0	191239	234
374.552734375	1	decision	trialStart	1	20	20	foodImage.99	FOODEEG_Images\0907.jpg	YN	Right	No	1.38151499989908	0	191772	251
375.59375	2	decision	foodImageDisplay	1	20	20	foodImage.99	FOODEEG_Images\0907.jpg	YN	Right	No	1.38151499989908	0	192305	252
377.66015625	1.38151499989908	decision	choicePhaseStart	1	20	20	foodImage.99	FOODEEG_Images\0907.jpg	YN	Right	No	1.38151499989908	0	193363	253
379.033203125	0	decision	response	1	20	20	foodImage.99	FOODEEG_Images\0907.jpg	YN	Right	No	1.38151499989908	0	194066	235
380.07421875	1	health	trialStart	1	21	21	foodImage.44	FOODEEG_Images\0459.jpg	NY	Right	Yes	0.739098899997771	0	194599	251
381.119140625	2	health	foodImageDisplay	1	21	21	foodImage.44	FOODEEG_Images\0459.jpg	NY	Right	Yes	0.739098899997771	0	195134	252
383.181640625	0.739098899997771	health	choicePhaseStart	1	21	21	foodImage.44	FOODEEG_Images\0459.jpg	NY	Right	Yes	0.739098899997771	0	196190	253
383.912109375	0	health	response	1	21	21	foodImage.44	FOODEEG_Images\0459.jpg	NY	Right	Yes	0.739098899997771	0	196564	235
384.953125	1	taste	trialStart	1	22	22	foodImage.95	FOODEEG_Images\0903.jpg	YN	Right	No	1.4641540000448	0	197097	251
385.9921875	2	taste	foodImageDisplay	1	22	22	foodImage.95	FOODEEG_Images\0903.jpg	YN	Right	No	1.4641540000448	0	197629	252
388.0546875	1.4641540000448	taste	choicePhaseStart	1	22	22	foodImage.95	FOODEEG_Images\0903.jpg	YN	Right	No	1.4641540000448	0	198685	253
389.51171875	0	taste	response	1	22	22	foodImage.95	FOODEEG_Images\0903.jpg	YN	Right	No	1.4641540000448	0	199431	235
390.55859375	1	decision	trialStart	1	23	23	foodImage.43	FOODEEG_Images\0445.jpg	YN	Left	Yes	1.85298640001565	0	199967	251
391.6171875	2	decision	foodImageDisplay	1	23	23	foodImage.43	FOODEEG_Images\0445.jpg	YN	Left	Yes	1.85298640001565	0	200509	252
393.689453125	1.85298640001565	decision	choicePhaseStart	1	23	23	foodImage.43	FOODEEG_Images\0445.jpg	YN	Left	Yes	1.85298640001565	0	201570	253
395.53515625	0	decision	response	1	23	23	foodImage.43	FOODEEG_Images\0445.jpg	YN	Left	Yes	1.85298640001565	0	202515	234
396.576171875	1	taste	trialStart	1	24	24	foodImage.68	FOODEEG_Images\0685.jpg	YN	Left	Yes	1.24494599993341	0	203048	251
397.65234375	2	taste	foodImageDisplay	1	24	24	foodImage.68	FOODEEG_Images\0685.jpg	YN	Left	Yes	1.24494599993341	0	203599	252
399.71484375	1.24494599993341	taste	choicePhaseStart	1	24	24	foodImage.68	FOODEEG_Images\0685.jpg	YN	Left	Yes	1.24494599993341	0	204655	253
400.951171875	0	taste	response	1	24	24	foodImage.68	FOODEEG_Images\0685.jpg	YN	Left	Yes	1.24494599993341	0	205288	234
402	1	taste	trialStart	1	25	25	foodImage.57	FOODEEG_Images\0587.jpg	NY	Right	Yes	0.883670899900608	0	205825	251
403.044921875	2	taste	foodImageDisplay	1	25	25	foodImage.57	FOODEEG_Images\0587.jpg	NY	Right	Yes	0.883670899900608	0	206360	252
405.109375	0.883670899900608	taste	choicePhaseStart	1	25	25	foodImage.57	FOODEEG_Images\0587.jpg	NY	Right	Yes	0.883670899900608	0	207417	253
405.982421875	0	taste	response	1	25	25	foodImage.57	FOODEEG_Images\0587.jpg	NY	Right	Yes	0.883670899900608	0	207864	235
407.0234375	1	decision	trialStart	1	26	26	foodImage.113	FOODEEG_Images\0921.jpg	NY	Right	Yes	1.20952240005136	0	208397	251
408.0625	2	decision	foodImageDisplay	1	26	26	foodImage.113	FOODEEG_Images\0921.jpg	NY	Right	Yes	1.20952240005136	0	208929	252
410.126953125	1.20952240005136	decision	choicePhaseStart	1	26	26	foodImage.113	FOODEEG_Images\0921.jpg	NY	Right	Yes	1.20952240005136	0	209986	253
411.326171875	0	decision	response	1	26	26	foodImage.113	FOODEEG_Images\0921.jpg	NY	Right	Yes	1.20952240005136	0	210600	235
412.3671875	1	decision	trialStart	1	27	27	foodImage.77	FOODEEG_Images\0771.jpg	YN	Left	Yes	1.12957920006011	0	211133	251
413.4140625	2	decision	foodImageDisplay	1	27	27	foodImage.77	FOODEEG_Images\0771.jpg	YN	Left	Yes	1.12957920006011	0	211669	252
415.482421875	1.12957920006011	decision	choicePhaseStart	1	27	27	foodImage.77	FOODEEG_Images\0771.jpg	YN	Left	Yes	1.12957920006011	0	212728	253
416.60546875	0	decision	response	1	27	27	foodImage.77	FOODEEG_Images\0771.jpg	YN	Left	Yes	1.12957920006011	0	213303	234
417.6484375	1	decision	trialStart	1	28	28	foodImage.85	FOODEEG_Images\0841.jpg	YN	Left	Yes	0.825781300081871	0	213837	251
418.7109375	2	decision	foodImageDisplay	1	28	28	foodImage.85	FOODEEG_Images\0841.jpg	YN	Left	Yes	0.825781300081871	0	214381	252
420.7734375	0.825781300081871	decision	choicePhaseStart	1	28	28	foodImage.85	FOODEEG_Images\0841.jpg	YN	Left	Yes	0.825781300081871	0	215437	253
421.58984375	0	decision	response	1	28	28	foodImage.85	FOODEEG_Images\0841.jpg	YN	Left	Yes	0.825781300081871	0	215855	234
422.6328125	1	taste	trialStart	1	29	29	foodImage.88	FOODEEG_Images\0878.jpg	NY	Right	Yes	0.915608299896121	0	216389	251
423.70703125	2	taste	foodImageDisplay	1	29	29	foodImage.88	FOODEEG_Images\0878.jpg	NY	Right	Yes	0.915608299896121	0	216939	252
425.771484375	0.915608299896121	taste	choicePhaseStart	1	29	29	foodImage.88	FOODEEG_Images\0878.jpg	NY	Right	Yes	0.915608299896121	0	217996	253
426.677734375	0	taste	response	1	29	29	foodImage.88	FOODEEG_Images\0878.jpg	NY	Right	Yes	0.915608299896121	0	218460	235
427.720703125	1	decision	trialStart	1	30	30	foodImage.119	FOODEEG_Images\0927.jpg	YN	Right	No	0.87098580005113	0	218994	251
428.759765625	2	decision	foodImageDisplay	1	30	30	foodImage.119	FOODEEG_Images\0927.jpg	YN	Right	No	0.87098580005113	0	219526	252
430.82421875	0.87098580005113	decision	choicePhaseStart	1	30	30	foodImage.119	FOODEEG_Images\0927.jpg	YN	Right	No	0.87098580005113	0	220583	253
431.685546875	0	decision	response	1	30	30	foodImage.119	FOODEEG_Images\0927.jpg	YN	Right	No	0.87098580005113	0	221024	235
432.724609375	1	decision	trialStart	1	31	31	foodImage.45	FOODEEG_Images\0478.jpg	NY	Right	Yes	0.931748799979687	0	221556	251
433.771484375	2	decision	foodImageDisplay	1	31	31	foodImage.45	FOODEEG_Images\0478.jpg	NY	Right	Yes	0.931748799979687	0	222092	252
435.8359375	0.931748799979687	decision	choicePhaseStart	1	31	31	foodImage.45	FOODEEG_Images\0478.jpg	NY	Right	Yes	0.931748799979687	0	223149	253
436.7578125	0	decision	response	1	31	31	foodImage.45	FOODEEG_Images\0478.jpg	NY	Right	Yes	0.931748799979687	0	223621	235
437.798828125	1	taste	trialStart	1	32	32	foodImage.98	FOODEEG_Images\0906.jpg	YN	Right	No	0.944072399986908	0	224154	251
438.837890625	2	taste	foodImageDisplay	1	32	32	foodImage.98	FOODEEG_Images\0906.jpg	YN	Right	No	0.944072399986908	0	224686	252
440.90234375	0.944072399986908	taste	choicePhaseStart	1	32	32	foodImage.98	FOODEEG_Images\0906.jpg	YN	Right	No	0.944072399986908	0	225743	253
441.837890625	0	taste	response	1	32	32	foodImage.98	FOODEEG_Images\0906.jpg	YN	Right	No	0.944072399986908	0	226222	235
442.880859375	1	health	trialStart	1	33	33	foodImage.61	FOODEEG_Images\0640.jpg	YN	Left	Yes	1.06542510003783	0	226756	251
443.923828125	2	health	foodImageDisplay	1	33	33	foodImage.61	FOODEEG_Images\0640.jpg	YN	Left	Yes	1.06542510003783	0	227290	252
445.98828125	1.06542510003783	health	choicePhaseStart	1	33	33	foodImage.61	FOODEEG_Images\0640.jpg	YN	Left	Yes	1.06542510003783	0	228347	253
447.044921875	0	health	response	1	33	33	foodImage.61	FOODEEG_Images\0640.jpg	YN	Left	Yes	1.06542510003783	0	228888	234
448.087890625	1	taste	trialStart	1	34	34	foodImage.53	FOODEEG_Images\0547.jpg	NY	Left	No	1.34492089995183	0	229422	251
449.1484375	2	taste	foodImageDisplay	1	34	34	foodImage.53	FOODEEG_Images\0547.jpg	NY	Left	No	1.34492089995183	0	229965	252
451.212890625	1.34492089995183	taste	choicePhaseStart	1	34	34	foodImage.53	FOODEEG_Images\0547.jpg	NY	Left	No	1.34492089995183	0	231022	253
452.548828125	0	taste	response	1	34	34	foodImage.53	FOODEEG_Images\0547.jpg	NY	Left	No	1.34492089995183	0	231706	234
453.58984375	1	decision	trialStart	1	35	35	foodImage.92	FOODEEG_Images\0900.jpg	NY	Left	No	0.898262400063686	0	232239	251
454.62890625	2	decision	foodImageDisplay	1	35	35	foodImage.92	FOODEEG_Images\0900.jpg	NY	Left	No	0.898262400063686	0	232771	252
456.69140625	0.898262400063686	decision	choicePhaseStart	1	35	35	foodImage.92	FOODEEG_Images\0900.jpg	NY	Left	No	0.898262400063686	0	233827	253
457.580078125	0	decision	response	1	35	35	foodImage.92	FOODEEG_Images\0900.jpg	NY	Left	No	0.898262400063686	0	234282	234
458.623046875	1	taste	trialStart	1	36	36	foodImage.75	FOODEEG_Images\0763.jpg	NY	Right	Yes	0.985375299933366	0	234816	251
459.669921875	2	taste	foodImageDisplay	1	36	36	foodImage.75	FOODEEG_Images\0763.jpg	NY	Right	Yes	0.985375299933366	0	235352	252
461.732421875	0.985375299933366	taste	choicePhaseStart	1	36	36	foodImage.75	FOODEEG_Images\0763.jpg	NY	Right	Yes	0.985375299933366	0	236408	253
462.708984375	0	taste	response	1	36	36	foodImage.75	FOODEEG_Images\0763.jpg	NY	Right	Yes	0.985375299933366	0	236908	235
463.75	1	decision	trialStart	1	37	37	foodImage.42	FOODEEG_Images\0438.jpg	YN	Right	No	1.04766899999231	0	237441	251
464.8359375	2	decision	foodImageDisplay	1	37	37	foodImage.42	FOODEEG_Images\0438.jpg	YN	Right	No	1.04766899999231	0	237997	252
466.90234375	1.04766899999231	decision	choicePhaseStart	1	37	37	foodImage.42	FOODEEG_Images\0438.jpg	YN	Right	No	1.04766899999231	0	239055	253
467.939453125	0	decision	response	1	37	37	foodImage.42	FOODEEG_Images\0438.jpg	YN	Right	No	1.04766899999231	0	239586	235
468.98828125	1	taste	trialStart	1	38	38	foodImage.15	FOODEEG_Images\0189.jpg	NY	Right	Yes	1.29477600008249	0	240123	251
470.046875	2	taste	foodImageDisplay	1	38	38	foodImage.15	FOODEEG_Images\0189.jpg	NY	Right	Yes	1.29477600008249	0	240665	252
472.109375	1.29477600008249	taste	choicePhaseStart	1	38	38	foodImage.15	FOODEEG_Images\0189.jpg	NY	Right	Yes	1.29477600008249	0	241721	253
473.396484375	0	taste	response	1	38	38	foodImage.15	FOODEEG_Images\0189.jpg	NY	Right	Yes	1.29477600008249	0	242380	235
474.439453125	1	taste	trialStart	1	39	39	foodImage.94	FOODEEG_Images\0902.jpg	YN	Left	Yes	1.49596670002211	0	242914	251
475.4765625	2	taste	foodImageDisplay	1	39	39	foodImage.94	FOODEEG_Images\0902.jpg	YN	Left	Yes	1.49596670002211	0	243445	252
477.541015625	1.49596670002211	taste	choicePhaseStart	1	39	39	foodImage.94	FOODEEG_Images\0902.jpg	YN	Left	Yes	1.49596670002211	0	244502	253
479.02734375	0	taste	response	1	39	39	foodImage.94	FOODEEG_Images\0902.jpg	YN	Left	Yes	1.49596670002211	0	245263	234
480.06640625	1	health	trialStart	1	40	40	foodImage.66	FOODEEG_Images\0676.jpg	NY	Left	No	1.07308940007351	0	245795	251
481.107421875	2	health	foodImageDisplay	1	40	40	foodImage.66	FOODEEG_Images\0676.jpg	NY	Left	No	1.07308940007351	0	246328	252
483.171875	1.07308940007351	health	choicePhaseStart	1	40	40	foodImage.66	FOODEEG_Images\0676.jpg	NY	Left	No	1.07308940007351	0	247385	253
484.234375	0	health	response	1	40	40	foodImage.66	FOODEEG_Images\0676.jpg	NY	Left	No	1.07308940007351	0	247929	234
485.28125	1	decision	trialStart	1	41	41	foodImage.21	FOODEEG_Images\0234.jpg	YN	Left	Yes	0.955936199985445	0	248465	251
486.357421875	2	decision	foodImageDisplay	1	41	41	foodImage.21	FOODEEG_Images\0234.jpg	YN	Left	Yes	0.955936199985445	0	249016	252
488.421875	0.955936199985445	decision	choicePhaseStart	1	41	41	foodImage.21	FOODEEG_Images\0234.jpg	YN	Left	Yes	0.955936199985445	0	250073	253
489.37109375	0	decision	response	1	41	41	foodImage.21	FOODEEG_Images\0234.jpg	YN	Left	Yes	0.955936199985445	0	250559	234
490.4140625	1	health	trialStart	1	42	42	foodImage.51	FOODEEG_Images\0536.jpg	NY	Left	No	0.753112300066277	0	251093	251
491.458984375	2	health	foodImageDisplay	1	42	42	foodImage.51	FOODEEG_Images\0536.jpg	NY	Left	No	0.753112300066277	0	251628	252
493.5234375	0.753112300066277	health	choicePhaseStart	1	42	42	foodImage.51	FOODEEG_Images\0536.jpg	NY	Left	No	0.753112300066277	0	252685	253
494.267578125	0	health	response	1	42	42	foodImage.51	FOODEEG_Images\0536.jpg	NY	Left	No	0.753112300066277	0	253066	234
495.310546875	1	decision	trialStart	1	43	43	foodImage.63	FOODEEG_Images\0645.jpg	NY	Right	Yes	0.787463499931619	0	253600	251
496.3515625	2	decision	foodImageDisplay	1	43	43	foodImage.63	FOODEEG_Images\0645.jpg	NY	Right	Yes	0.787463499931619	0	254133	252
498.41796875	0.787463499931619	decision	choicePhaseStart	1	43	43	foodImage.63	FOODEEG_Images\0645.jpg	NY	Right	Yes	0.787463499931619	0	255191	253
499.1953125	0	decision	response	1	43	43	foodImage.63	FOODEEG_Images\0645.jpg	NY	Right	Yes	0.787463499931619	0	255589	235
500.2421875	1	health	trialStart	1	44	44	foodImage.79	FOODEEG_Images\0794.jpg	NY	Right	Yes	1.18596749997232	0	256125	251
501.287109375	2	health	foodImageDisplay	1	44	44	foodImage.79	FOODEEG_Images\0794.jpg	NY	Right	Yes	1.18596749997232	0	256660	252
503.357421875	1.18596749997232	health	choicePhaseStart	1	44	44	foodImage.79	FOODEEG_Images\0794.jpg	NY	Right	Yes	1.18596749997232	0	257720	253
504.5390625	0	health	response	1	44	44	foodImage.79	FOODEEG_Images\0794.jpg	NY	Right	Yes	1.18596749997232	0	258325	235
505.580078125	1	taste	trialStart	1	45	45	foodImage.40	FOODEEG_Images\0373.jpg	NY	Right	Yes	0.885304199997336	0	258858	251
506.62109375	2	taste	foodImageDisplay	1	45	45	foodImage.40	FOODEEG_Images\0373.jpg	NY	Right	Yes	0.885304199997336	0	259391	252
508.685546875	0.885304199997336	taste	choicePhaseStart	1	45	45	foodImage.40	FOODEEG_Images\0373.jpg	NY	Right	Yes	0.885304199997336	0	260448	253
509.5625	0	taste	response	1	45	45	foodImage.40	FOODEEG_Images\0373.jpg	NY	Right	Yes	0.885304199997336	0	260897	235
510.60546875	1	health	trialStart	1	46	46	foodImage.120	FOODEEG_Images\0928.jpg	YN	Right	No	1.34207950008567	0	261431	251
511.64453125	2	health	foodImageDisplay	1	46	46	foodImage.120	FOODEEG_Images\0928.jpg	YN	Right	No	1.34207950008567	0	261963	252
513.708984375	1.34207950008567	health	choicePhaseStart	1	46	46	foodImage.120	FOODEEG_Images\0928.jpg	YN	Right	No	1.34207950008567	0	263020	253
515.04296875	0	health	response	1	46	46	foodImage.120	FOODEEG_Images\0928.jpg	YN	Right	No	1.34207950008567	0	263703	235
516.08203125	1	taste	trialStart	1	47	47	foodImage.81	FOODEEG_Images\0797.jpg	YN	Left	Yes	1.01469340000767	0	264235	251
517.138671875	2	taste	foodImageDisplay	1	47	47	foodImage.81	FOODEEG_Images\0797.jpg	YN	Left	Yes	1.01469340000767	0	264776	252
519.201171875	1.01469340000767	taste	choicePhaseStart	1	47	47	foodImage.81	FOODEEG_Images\0797.jpg	YN	Left	Yes	1.01469340000767	0	265832	253
520.208984375	0	taste	response	1	47	47	foodImage.81	FOODEEG_Images\0797.jpg	YN	Left	Yes	1.01469340000767	0	266348	234
521.251953125	1	decision	trialStart	1	48	48	foodImage.97	FOODEEG_Images\0905.jpg	NY	Left	No	0.914948599995114	0	266882	251
522.29296875	2	decision	foodImageDisplay	1	48	48	foodImage.97	FOODEEG_Images\0905.jpg	NY	Left	No	0.914948599995114	0	267415	252
524.361328125	0.914948599995114	decision	choicePhaseStart	1	48	48	foodImage.97	FOODEEG_Images\0905.jpg	NY	Left	No	0.914948599995114	0	268474	253
525.265625	0	decision	response	1	48	48	foodImage.97	FOODEEG_Images\0905.jpg	NY	Left	No	0.914948599995114	0	268937	234
526.314453125	1	decision	trialStart	1	49	49	foodImage.39	FOODEEG_Images\0367.jpg	YN	Right	No	1.07992739998735	0	269474	251
527.353515625	2	decision	foodImageDisplay	1	49	49	foodImage.39	FOODEEG_Images\0367.jpg	YN	Right	No	1.07992739998735	0	270006	252
529.41796875	1.07992739998735	decision	choicePhaseStart	1	49	49	foodImage.39	FOODEEG_Images\0367.jpg	YN	Right	No	1.07992739998735	0	271063	253
530.490234375	0	decision	response	1	49	49	foodImage.39	FOODEEG_Images\0367.jpg	YN	Right	No	1.07992739998735	0	271612	235
531.53125	1	taste	trialStart	1	50	50	foodImage.120	FOODEEG_Images\0928.jpg	YN	Right	No	1.23757710005157	0	272145	251
532.5703125	2	taste	foodImageDisplay	1	50	50	foodImage.120	FOODEEG_Images\0928.jpg	YN	Right	No	1.23757710005157	0	272677	252
534.63671875	1.23757710005157	taste	choicePhaseStart	1	50	50	foodImage.120	FOODEEG_Images\0928.jpg	YN	Right	No	1.23757710005157	0	273735	253
535.865234375	0	taste	response	1	50	50	foodImage.120	FOODEEG_Images\0928.jpg	YN	Right	No	1.23757710005157	0	274364	235
536.908203125	1	decision	trialStart	1	51	51	foodImage.59	FOODEEG_Images\0607.jpg	NY	Right	Yes	1.01242709998041	0	274898	251
537.95703125	2	decision	foodImageDisplay	1	51	51	foodImage.59	FOODEEG_Images\0607.jpg	NY	Right	Yes	1.01242709998041	0	275435	252
540.021484375	1.01242709998041	decision	choicePhaseStart	1	51	51	foodImage.59	FOODEEG_Images\0607.jpg	NY	Right	Yes	1.01242709998041	0	276492	253
541.025390625	0	decision	response	1	51	51	foodImage.59	FOODEEG_Images\0607.jpg	NY	Right	Yes	1.01242709998041	0	277006	235
542.064453125	1	taste	trialStart	1	52	52	foodImage.19	FOODEEG_Images\0225.jpg	YN	Left	Yes	0.773889600066468	0	277538	251
543.109375	2	taste	foodImageDisplay	1	52	52	foodImage.19	FOODEEG_Images\0225.jpg	YN	Left	Yes	0.773889600066468	0	278073	252
545.171875	0.773889600066468	taste	choicePhaseStart	1	52	52	foodImage.19	FOODEEG_Images\0225.jpg	YN	Left	Yes	0.773889600066468	0	279129	253
545.9375	0	taste	response	1	52	52	foodImage.19	FOODEEG_Images\0225.jpg	YN	Left	Yes	0.773889600066468	0	279521	234
546.978515625	1	decision	trialStart	1	53	53	foodImage.109	FOODEEG_Images\0917.jpg	NY	Left	No	2.34509259997867	0	280054	251
548.017578125	2	decision	foodImageDisplay	1	53	53	foodImage.109	FOODEEG_Images\0917.jpg	NY	Left	No	2.34509259997867	0	280586	252
550.080078125	2.34509259997867	decision	choicePhaseStart	1	53	53	foodImage.109	FOODEEG_Images\0917.jpg	NY	Left	No	2.34509259997867	0	281642	253
552.416015625	0	decision	response	1	53	53	foodImage.109	FOODEEG_Images\0917.jpg	NY	Left	No	2.34509259997867	0	282838	234
553.458984375	1	decision	trialStart	1	54	54	foodImage.114	FOODEEG_Images\0922.jpg	NY	Right	Yes	0.897847300046124	0	283372	251
554.49609375	2	decision	foodImageDisplay	1	54	54	foodImage.114	FOODEEG_Images\0922.jpg	NY	Right	Yes	0.897847300046124	0	283903	252
556.560546875	0.897847300046124	decision	choicePhaseStart	1	54	54	foodImage.114	FOODEEG_Images\0922.jpg	NY	Right	Yes	0.897847300046124	0	284960	253
557.44921875	0	decision	response	1	54	54	foodImage.114	FOODEEG_Images\0922.jpg	NY	Right	Yes	0.897847300046124	0	285415	235
558.48828125	1	health	trialStart	1	55	55	foodImage.87	FOODEEG_Images\0873.jpg	NY	Right	Yes	0.825582299963571	0	285947	251
559.544921875	2	health	foodImageDisplay	1	55	55	foodImage.87	FOODEEG_Images\0873.jpg	NY	Right	Yes	0.825582299963571	0	286488	252
561.61328125	0.825582299963571	health	choicePhaseStart	1	55	55	foodImage.87	FOODEEG_Images\0873.jpg	NY	Right	Yes	0.825582299963571	0	287547	253
562.431640625	0	health	response	1	55	55	foodImage.87	FOODEEG_Images\0873.jpg	NY	Right	Yes	0.825582299963571	0	287966	235
563.482421875	1	decision	trialStart	1	56	56	foodImage.7	FOODEEG_Images\0116.jpg	YN	Left	Yes	0.934722700039856	0	288504	251
564.53125	2	decision	foodImageDisplay	1	56	56	foodImage.7	FOODEEG_Images\0116.jpg	YN	Left	Yes	0.934722700039856	0	289041	252
566.599609375	0.934722700039856	decision	choicePhaseStart	1	56	56	foodImage.7	FOODEEG_Images\0116.jpg	YN	Left	Yes	0.934722700039856	0	290100	253
567.52734375	0	decision	response	1	56	56	foodImage.7	FOODEEG_Images\0116.jpg	YN	Left	Yes	0.934722700039856	0	290575	234
568.5703125	1	decision	trialStart	1	57	57	foodImage.26	FOODEEG_Images\0262.jpg	YN	Left	Yes	1.03735499992035	0	291109	251
569.61328125	2	decision	foodImageDisplay	1	57	57	foodImage.26	FOODEEG_Images\0262.jpg	YN	Left	Yes	1.03735499992035	0	291643	252
571.67578125	1.03735499992035	decision	choicePhaseStart	1	57	57	foodImage.26	FOODEEG_Images\0262.jpg	YN	Left	Yes	1.03735499992035	0	292699	253
572.703125	0	decision	response	1	57	57	foodImage.26	FOODEEG_Images\0262.jpg	YN	Left	Yes	1.03735499992035	0	293225	234
573.751953125	1	health	trialStart	1	58	58	foodImage.74	FOODEEG_Images\0752.jpg	YN	Left	Yes	0.762064700014889	0	293762	251
574.798828125	2	health	foodImageDisplay	1	58	58	foodImage.74	FOODEEG_Images\0752.jpg	YN	Left	Yes	0.762064700014889	0	294298	252
576.86328125	0.762064700014889	health	choicePhaseStart	1	58	58	foodImage.74	FOODEEG_Images\0752.jpg	YN	Left	Yes	0.762064700014889	0	295355	253
577.615234375	0	health	response	1	58	58	foodImage.74	FOODEEG_Images\0752.jpg	YN	Left	Yes	0.762064700014889	0	295740	234
578.6640625	1	taste	trialStart	1	59	59	foodImage.92	FOODEEG_Images\0900.jpg	YN	Right	No	0.847125799977221	0	296277	251
579.7109375	2	taste	foodImageDisplay	1	59	59	foodImage.92	FOODEEG_Images\0900.jpg	YN	Right	No	0.847125799977221	0	296813	252
581.77734375	0.847125799977221	taste	choicePhaseStart	1	59	59	foodImage.92	FOODEEG_Images\0900.jpg	YN	Right	No	0.847125799977221	0	297871	253
582.615234375	0	taste	response	1	59	59	foodImage.92	FOODEEG_Images\0900.jpg	YN	Right	No	0.847125799977221	0	298300	235
583.658203125	1	health	trialStart	1	60	60	foodImage.10	FOODEEG_Images\0145.jpg	NY	Right	Yes	1.16612040007021	0	298834	251
584.71875	2	health	foodImageDisplay	1	60	60	foodImage.10	FOODEEG_Images\0145.jpg	NY	Right	Yes	1.16612040007021	0	299377	252
586.791015625	1.16612040007021	health	choicePhaseStart	1	60	60	foodImage.10	FOODEEG_Images\0145.jpg	NY	Right	Yes	1.16612040007021	0	300438	253
587.951171875	0	health	response	1	60	60	foodImage.10	FOODEEG_Images\0145.jpg	NY	Right	Yes	1.16612040007021	0	301032	235
589.994140625	2.857421875	n/a	blockEnd	n/a	n/a	n/a	n/a	n/a	n/a	n/a	n/a	n/a	n/a	302078	254
592.8515625	2	n/a	blockStart	2	n/a	n/a	n/a	n/a	n/a	n/a	n/a	n/a	n/a	303541	250
594.88671875	1	health	trialStart	2	61	1	foodImage.55	FOODEEG_Images\0567.jpg	NY	Right	Yes	0.75519820000045	0	304583	251
595.94921875	2	health	foodImageDisplay	2	61	1	foodImage.55	FOODEEG_Images\0567.jpg	NY	Right	Yes	0.75519820000045	0	305127	252
598.01171875	0.75519820000045	health	choicePhaseStart	2	61	1	foodImage.55	FOODEEG_Images\0567.jpg	NY	Right	Yes	0.75519820000045	0	306183	253
598.759765625	0	health	response	2	61	1	foodImage.55	FOODEEG_Images\0567.jpg	NY	Right	Yes	0.75519820000045	0	306566	235
599.796875	1	taste	trialStart	2	62	2	foodImage.4	FOODEEG_Images\0065.jpg	NY	Right	Yes	1.14530099998228	0	307097	251
600.85546875	2	taste	foodImageDisplay	2	62	2	foodImage.4	FOODEEG_Images\0065.jpg	NY	Right	Yes	1.14530099998228	0	307639	252
602.91796875	1.14530099998228	taste	choicePhaseStart	2	62	2	foodImage.4	FOODEEG_Images\0065.jpg	NY	Right	Yes	1.14530099998228	0	308695	253
604.0546875	0	taste	response	2	62	2	foodImage.4	FOODEEG_Images\0065.jpg	NY	Right	Yes	1.14530099998228	0	309277	235
605.09765625	1	decision	trialStart	2	63	3	foodImage.11	FOODEEG_Images\0180.jpg	YN	Left	Yes	1.21185399999376	0	309811	251
606.140625	2	decision	foodImageDisplay	2	63	3	foodImage.11	FOODEEG_Images\0180.jpg	YN	Left	Yes	1.21185399999376	0	310345	252
608.203125	1.21185399999376	decision	choicePhaseStart	2	63	3	foodImage.11	FOODEEG_Images\0180.jpg	YN	Left	Yes	1.21185399999376	0	311401	253
609.40625	0	decision	response	2	63	3	foodImage.11	FOODEEG_Images\0180.jpg	YN	Left	Yes	1.21185399999376	0	312017	234
610.44921875	1	taste	trialStart	2	64	4	foodImage.51	FOODEEG_Images\0536.jpg	YN	Left	Yes	1.29253239999525	0	312551	251
611.515625	2	taste	foodImageDisplay	2	64	4	foodImage.51	FOODEEG_Images\0536.jpg	YN	Left	Yes	1.29253239999525	0	313097	252
613.578125	1.29253239999525	taste	choicePhaseStart	2	64	4	foodImage.51	FOODEEG_Images\0536.jpg	YN	Left	Yes	1.29253239999525	0	314153	253
614.861328125	0	taste	response	2	64	4	foodImage.51	FOODEEG_Images\0536.jpg	YN	Left	Yes	1.29253239999525	0	314810	234
615.908203125	1	decision	trialStart	2	65	5	foodImage.34	FOODEEG_Images\0339.jpg	NY	Left	No	1.39832249993924	0	315346	251
616.994140625	2	decision	foodImageDisplay	2	65	5	foodImage.34	FOODEEG_Images\0339.jpg	NY	Left	No	1.39832249993924	0	315902	252
619.056640625	1.39832249993924	decision	choicePhaseStart	2	65	5	foodImage.34	FOODEEG_Images\0339.jpg	NY	Left	No	1.39832249993924	0	316958	253
620.4453125	0	decision	response	2	65	5	foodImage.34	FOODEEG_Images\0339.jpg	NY	Left	No	1.39832249993924	0	317669	234
621.48828125	1	health	trialStart	2	66	6	foodImage.70	FOODEEG_Images\0705.jpg	NY	Right	Yes	1.03956659999676	0	318203	251
622.548828125	2	health	foodImageDisplay	2	66	6	foodImage.70	FOODEEG_Images\0705.jpg	NY	Right	Yes	1.03956659999676	0	318746	252
624.61328125	1.03956659999676	health	choicePhaseStart	2	66	6	foodImage.70	FOODEEG_Images\0705.jpg	NY	Right	Yes	1.03956659999676	0	319803	253
625.646484375	0	health	response	2	66	6	foodImage.70	FOODEEG_Images\0705.jpg	NY	Right	Yes	1.03956659999676	0	320332	235
626.689453125	1	health	trialStart	2	67	7	foodImage.85	FOODEEG_Images\0841.jpg	YN	Right	No	1.04907220008317	0	320866	251
627.75	2	health	foodImageDisplay	2	67	7	foodImage.85	FOODEEG_Images\0841.jpg	YN	Right	No	1.04907220008317	0	321409	252
629.814453125	1.04907220008317	health	choicePhaseStart	2	67	7	foodImage.85	FOODEEG_Images\0841.jpg	YN	Right	No	1.04907220008317	0	322466	253
630.853515625	0	health	response	2	67	7	foodImage.85	FOODEEG_Images\0841.jpg	YN	Right	No	1.04907220008317	0	322998	235
631.89453125	1	health	trialStart	2	68	8	foodImage.52	FOODEEG_Images\0539.jpg	YN	Left	Yes	0.829945600009523	0	323531	251
632.96875	2	health	foodImageDisplay	2	68	8	foodImage.52	FOODEEG_Images\0539.jpg	YN	Left	Yes	0.829945600009523	0	324081	252
635.033203125	0.829945600009523	health	choicePhaseStart	2	68	8	foodImage.52	FOODEEG_Images\0539.jpg	YN	Left	Yes	0.829945600009523	0	325138	253
635.853515625	0	health	response	2	68	8	foodImage.52	FOODEEG_Images\0539.jpg	YN	Left	Yes	0.829945600009523	0	325558	234
636.89453125	1	decision	trialStart	2	69	9	foodImage.86	FOODEEG_Images\0844.jpg	YN	Left	Yes	1.08327309996821	0	326091	251
637.95703125	2	decision	foodImageDisplay	2	69	9	foodImage.86	FOODEEG_Images\0844.jpg	YN	Left	Yes	1.08327309996821	0	326635	252
640.025390625	1.08327309996821	decision	choicePhaseStart	2	69	9	foodImage.86	FOODEEG_Images\0844.jpg	YN	Left	Yes	1.08327309996821	0	327694	253
641.1015625	0	decision	response	2	69	9	foodImage.86	FOODEEG_Images\0844.jpg	YN	Left	Yes	1.08327309996821	0	328245	234
642.1484375	1	decision	trialStart	2	70	10	foodImage.57	FOODEEG_Images\0587.jpg	NY	Right	Yes	1.00511500006542	0	328781	251
643.19140625	2	decision	foodImageDisplay	2	70	10	foodImage.57	FOODEEG_Images\0587.jpg	NY	Right	Yes	1.00511500006542	0	329315	252
645.255859375	1.00511500006542	decision	choicePhaseStart	2	70	10	foodImage.57	FOODEEG_Images\0587.jpg	NY	Right	Yes	1.00511500006542	0	330372	253
646.251953125	0	decision	response	2	70	10	foodImage.57	FOODEEG_Images\0587.jpg	NY	Right	Yes	1.00511500006542	0	330882	235
647.296875	1	taste	trialStart	2	71	11	foodImage.109	FOODEEG_Images\0917.jpg	NY	Left	No	0.935713700018823	0	331417	251
648.333984375	2	taste	foodImageDisplay	2	71	11	foodImage.109	FOODEEG_Images\0917.jpg	NY	Left	No	0.935713700018823	0	331948	252
650.3984375	0.935713700018823	taste	choicePhaseStart	2	71	11	foodImage.109	FOODEEG_Images\0917.jpg	NY	Left	No	0.935713700018823	0	333005	253
651.32421875	0	taste	response	2	71	11	foodImage.109	FOODEEG_Images\0917.jpg	NY	Left	No	0.935713700018823	0	333479	234
652.3671875	1	taste	trialStart	2	72	12	foodImage.35	FOODEEG_Images\0350.jpg	YN	Left	Yes	1.02174630004447	0	334013	251
653.40625	2	taste	foodImageDisplay	2	72	12	foodImage.35	FOODEEG_Images\0350.jpg	YN	Left	Yes	1.02174630004447	0	334545	252
655.47265625	1.02174630004447	taste	choicePhaseStart	2	72	12	foodImage.35	FOODEEG_Images\0350.jpg	YN	Left	Yes	1.02174630004447	0	335603	253
656.484375	0	taste	response	2	72	12	foodImage.35	FOODEEG_Images\0350.jpg	YN	Left	Yes	1.02174630004447	0	336121	234
657.52734375	1	health	trialStart	2	73	13	foodImage.3	FOODEEG_Images\0046.jpg	NY	Left	No	0.898787399986759	0	336655	251
658.572265625	2	health	foodImageDisplay	2	73	13	foodImage.3	FOODEEG_Images\0046.jpg	NY	Left	No	0.898787399986759	0	337190	252
660.634765625	0.898787399986759	health	choicePhaseStart	2	73	13	foodImage.3	FOODEEG_Images\0046.jpg	NY	Left	No	0.898787399986759	0	338246	253
661.5234375	0	health	response	2	73	13	foodImage.3	FOODEEG_Images\0046.jpg	NY	Left	No	0.898787399986759	0	338701	234
662.56640625	1	health	trialStart	2	74	14	foodImage.108	FOODEEG_Images\0916.jpg	YN	Right	No	1.0629066999536	0	339235	251
663.60546875	2	health	foodImageDisplay	2	74	14	foodImage.108	FOODEEG_Images\0916.jpg	YN	Right	No	1.0629066999536	0	339767	252
665.66796875	1.0629066999536	health	choicePhaseStart	2	74	14	foodImage.108	FOODEEG_Images\0916.jpg	YN	Right	No	1.0629066999536	0	340823	253
666.724609375	0	health	response	2	74	14	foodImage.108	FOODEEG_Images\0916.jpg	YN	Right	No	1.0629066999536	0	341364	235
667.767578125	1	health	trialStart	2	75	15	foodImage.97	FOODEEG_Images\0905.jpg	NY	Left	No	0.980620099930093	0	341898	251
668.80859375	2	health	foodImageDisplay	2	75	15	foodImage.97	FOODEEG_Images\0905.jpg	NY	Left	No	0.980620099930093	0	342431	252
670.873046875	0.980620099930093	health	choicePhaseStart	2	75	15	foodImage.97	FOODEEG_Images\0905.jpg	NY	Left	No	0.980620099930093	0	343488	253
671.84375	0	health	response	2	75	15	foodImage.97	FOODEEG_Images\0905.jpg	NY	Left	No	0.980620099930093	0	343985	234
672.88671875	1	decision	trialStart	2	76	16	foodImage.25	FOODEEG_Images\0261.jpg	YN	Left	Yes	0.961047300021164	0	344519	251
673.931640625	2	decision	foodImageDisplay	2	76	16	foodImage.25	FOODEEG_Images\0261.jpg	YN	Left	Yes	0.961047300021164	0	345054	252
675.99609375	0.961047300021164	decision	choicePhaseStart	2	76	16	foodImage.25	FOODEEG_Images\0261.jpg	YN	Left	Yes	0.961047300021164	0	346111	253
676.947265625	0	decision	response	2	76	16	foodImage.25	FOODEEG_Images\0261.jpg	YN	Left	Yes	0.961047300021164	0	346598	234
677.990234375	1	decision	trialStart	2	77	17	foodImage.116	FOODEEG_Images\0924.jpg	NY	Left	No	0.712437800015323	0	347132	251
679.02734375	2	decision	foodImageDisplay	2	77	17	foodImage.116	FOODEEG_Images\0924.jpg	NY	Left	No	0.712437800015323	0	347663	252
681.091796875	0.712437800015323	decision	choicePhaseStart	2	77	17	foodImage.116	FOODEEG_Images\0924.jpg	NY	Left	No	0.712437800015323	0	348720	253
681.794921875	0	decision	response	2	77	17	foodImage.116	FOODEEG_Images\0924.jpg	NY	Left	No	0.712437800015323	0	349080	234
682.841796875	1	health	trialStart	2	78	18	foodImage.91	FOODEEG_Images\0896.jpg	YN	Left	Yes	1.77130849997047	0	349616	251
683.900390625	2	health	foodImageDisplay	2	78	18	foodImage.91	FOODEEG_Images\0896.jpg	YN	Left	Yes	1.77130849997047	0	350158	252
685.966796875	1.77130849997047	health	choicePhaseStart	2	78	18	foodImage.91	FOODEEG_Images\0896.jpg	YN	Left	Yes	1.77130849997047	0	351216	253
687.73046875	0	health	response	2	78	18	foodImage.91	FOODEEG_Images\0896.jpg	YN	Left	Yes	1.77130849997047	0	352119	234
688.775390625	1	health	trialStart	2	79	19	foodImage.88	FOODEEG_Images\0878.jpg	YN	Left	Yes	0.946100399945863	0	352654	251
689.830078125	2	health	foodImageDisplay	2	79	19	foodImage.88	FOODEEG_Images\0878.jpg	YN	Left	Yes	0.946100399945863	0	353194	252
691.8984375	0.946100399945863	health	choicePhaseStart	2	79	19	foodImage.88	FOODEEG_Images\0878.jpg	YN	Left	Yes	0.946100399945863	0	354253	253
692.8359375	0	health	response	2	79	19	foodImage.88	FOODEEG_Images\0878.jpg	YN	Left	Yes	0.946100399945863	0	354733	234
693.880859375	1	health	trialStart	2	80	20	foodImage.46	FOODEEG_Images\0479.jpg	YN	Left	Yes	0.847404000000097	0	355268	251
694.94140625	2	health	foodImageDisplay	2	80	20	foodImage.46	FOODEEG_Images\0479.jpg	YN	Left	Yes	0.847404000000097	0	355811	252
697.00390625	0.847404000000097	health	choicePhaseStart	2	80	20	foodImage.46	FOODEEG_Images\0479.jpg	YN	Left	Yes	0.847404000000097	0	356867	253
697.841796875	0	health	response	2	80	20	foodImage.46	FOODEEG_Images\0479.jpg	YN	Left	Yes	0.847404000000097	0	357296	234
698.88671875	1	taste	trialStart	2	81	21	foodImage.5	FOODEEG_Images\0107.jpg	NY	Right	Yes	1.25746969995089	0	357831	251
699.943359375	2	taste	foodImageDisplay	2	81	21	foodImage.5	FOODEEG_Images\0107.jpg	NY	Right	Yes	1.25746969995089	0	358372	252
702.009765625	1.25746969995089	taste	choicePhaseStart	2	81	21	foodImage.5	FOODEEG_Images\0107.jpg	NY	Right	Yes	1.25746969995089	0	359430	253
703.2578125	0	taste	response	2	81	21	foodImage.5	FOODEEG_Images\0107.jpg	NY	Right	Yes	1.25746969995089	0	360069	235
704.298828125	1	taste	trialStart	2	82	22	foodImage.90	FOODEEG_Images\0890.jpg	NY	Right	Yes	0.970388000016101	0	360602	251
705.361328125	2	taste	foodImageDisplay	2	82	22	foodImage.90	FOODEEG_Images\0890.jpg	NY	Right	Yes	0.970388000016101	0	361146	252
707.42578125	0.970388000016101	taste	choicePhaseStart	2	82	22	foodImage.90	FOODEEG_Images\0890.jpg	NY	Right	Yes	0.970388000016101	0	362203	253
708.38671875	0	taste	response	2	82	22	foodImage.90	FOODEEG_Images\0890.jpg	NY	Right	Yes	0.970388000016101	0	362695	235
709.427734375	1	health	trialStart	2	83	23	foodImage.18	FOODEEG_Images\0202.jpg	YN	Left	Yes	0.803795000072569	0	363228	251
710.49609375	2	health	foodImageDisplay	2	83	23	foodImage.18	FOODEEG_Images\0202.jpg	YN	Left	Yes	0.803795000072569	0	363775	252
712.560546875	0.803795000072569	health	choicePhaseStart	2	83	23	foodImage.18	FOODEEG_Images\0202.jpg	YN	Left	Yes	0.803795000072569	0	364832	253
713.353515625	0	health	response	2	83	23	foodImage.18	FOODEEG_Images\0202.jpg	YN	Left	Yes	0.803795000072569	0	365238	234
714.396484375	1	decision	trialStart	2	84	24	foodImage.112	FOODEEG_Images\0920.jpg	YN	Right	No	1.03265760000795	0	365772	251
715.435546875	2	decision	foodImageDisplay	2	84	24	foodImage.112	FOODEEG_Images\0920.jpg	YN	Right	No	1.03265760000795	0	366304	252
717.5	1.03265760000795	decision	choicePhaseStart	2	84	24	foodImage.112	FOODEEG_Images\0920.jpg	YN	Right	No	1.03265760000795	0	367361	253
718.5234375	0	decision	response	2	84	24	foodImage.112	FOODEEG_Images\0920.jpg	YN	Right	No	1.03265760000795	0	367885	235
719.568359375	1	taste	trialStart	2	85	25	foodImage.55	FOODEEG_Images\0567.jpg	YN	Left	Yes	0.763797300052829	0	368420	251
720.625	2	taste	foodImageDisplay	2	85	25	foodImage.55	FOODEEG_Images\0567.jpg	YN	Left	Yes	0.763797300052829	0	368961	252
722.6875	0.763797300052829	taste	choicePhaseStart	2	85	25	foodImage.55	FOODEEG_Images\0567.jpg	YN	Left	Yes	0.763797300052829	0	370017	253
723.44140625	0	taste	response	2	85	25	foodImage.55	FOODEEG_Images\0567.jpg	YN	Left	Yes	0.763797300052829	0	370403	234
724.484375	1	health	trialStart	2	86	26	foodImage.30	FOODEEG_Images\0282.jpg	NY	Right	Yes	0.757526400033385	0	370937	251
725.525390625	2	health	foodImageDisplay	2	86	26	foodImage.30	FOODEEG_Images\0282.jpg	NY	Right	Yes	0.757526400033385	0	371470	252
727.58984375	0.757526400033385	health	choicePhaseStart	2	86	26	foodImage.30	FOODEEG_Images\0282.jpg	NY	Right	Yes	0.757526400033385	0	372527	253
728.337890625	0	health	response	2	86	26	foodImage.30	FOODEEG_Images\0282.jpg	NY	Right	Yes	0.757526400033385	0	372910	235
729.376953125	1	health	trialStart	2	87	27	foodImage.14	FOODEEG_Images\0188.jpg	NY	Right	Yes	1.47723269998096	0	373442	251
730.4375	2	health	foodImageDisplay	2	87	27	foodImage.14	FOODEEG_Images\0188.jpg	NY	Right	Yes	1.47723269998096	0	373985	252
732.501953125	1.47723269998096	health	choicePhaseStart	2	87	27	foodImage.14	FOODEEG_Images\0188.jpg	NY	Right	Yes	1.47723269998096	0	375042	253
733.96875	0	health	response	2	87	27	foodImage.14	FOODEEG_Images\0188.jpg	NY	Right	Yes	1.47723269998096	0	375793	235
735.01171875	1	decision	trialStart	2	88	28	foodImage.35	FOODEEG_Images\0350.jpg	NY	Right	Yes	0.95866969996132	0	376327	251
736.05078125	2	decision	foodImageDisplay	2	88	28	foodImage.35	FOODEEG_Images\0350.jpg	NY	Right	Yes	0.95866969996132	0	376859	252
738.115234375	0.95866969996132	decision	choicePhaseStart	2	88	28	foodImage.35	FOODEEG_Images\0350.jpg	NY	Right	Yes	0.95866969996132	0	377916	253
739.064453125	0	decision	response	2	88	28	foodImage.35	FOODEEG_Images\0350.jpg	NY	Right	Yes	0.95866969996132	0	378402	235
740.109375	1	health	trialStart	2	89	29	foodImage.58	FOODEEG_Images\0605.jpg	NY	Right	Yes	0.969797099940479	0	378937	251
741.169921875	2	health	foodImageDisplay	2	89	29	foodImage.58	FOODEEG_Images\0605.jpg	NY	Right	Yes	0.969797099940479	0	379480	252
743.232421875	0.969797099940479	health	choicePhaseStart	2	89	29	foodImage.58	FOODEEG_Images\0605.jpg	NY	Right	Yes	0.969797099940479	0	380536	253
744.193359375	0	health	response	2	89	29	foodImage.58	FOODEEG_Images\0605.jpg	NY	Right	Yes	0.969797099940479	0	381028	235
745.232421875	1	health	trialStart	2	90	30	foodImage.106	FOODEEG_Images\0914.jpg	YN	Right	No	1.72601850004867	0	381560	251
746.2734375	2	health	foodImageDisplay	2	90	30	foodImage.106	FOODEEG_Images\0914.jpg	YN	Right	No	1.72601850004867	0	382093	252
748.33984375	1.72601850004867	health	choicePhaseStart	2	90	30	foodImage.106	FOODEEG_Images\0914.jpg	YN	Right	No	1.72601850004867	0	383151	253
750.056640625	0	health	response	2	90	30	foodImage.106	FOODEEG_Images\0914.jpg	YN	Right	No	1.72601850004867	0	384030	235
751.09765625	1	decision	trialStart	2	91	31	foodImage.40	FOODEEG_Images\0373.jpg	YN	Left	Yes	0.876471500028856	0	384563	251
752.140625	2	decision	foodImageDisplay	2	91	31	foodImage.40	FOODEEG_Images\0373.jpg	YN	Left	Yes	0.876471500028856	0	385097	252
754.205078125	0.876471500028856	decision	choicePhaseStart	2	91	31	foodImage.40	FOODEEG_Images\0373.jpg	YN	Left	Yes	0.876471500028856	0	386154	253
755.072265625	0	decision	response	2	91	31	foodImage.40	FOODEEG_Images\0373.jpg	YN	Left	Yes	0.876471500028856	0	386598	234
756.115234375	1	decision	trialStart	2	92	32	foodImage.108	FOODEEG_Images\0916.jpg	NY	Left	No	0.984644199954346	0	387132	251
757.154296875	2	decision	foodImageDisplay	2	92	32	foodImage.108	FOODEEG_Images\0916.jpg	NY	Left	No	0.984644199954346	0	387664	252
759.216796875	0.984644199954346	decision	choicePhaseStart	2	92	32	foodImage.108	FOODEEG_Images\0916.jpg	NY	Left	No	0.984644199954346	0	388720	253
760.193359375	0	decision	response	2	92	32	foodImage.108	FOODEEG_Images\0916.jpg	NY	Left	No	0.984644199954346	0	389220	234
761.236328125	1	health	trialStart	2	93	33	foodImage.82	FOODEEG_Images\0805.jpg	NY	Right	Yes	0.988551000016741	0	389754	251
762.29296875	2	health	foodImageDisplay	2	93	33	foodImage.82	FOODEEG_Images\0805.jpg	NY	Right	Yes	0.988551000016741	0	390295	252
764.357421875	0.988551000016741	health	choicePhaseStart	2	93	33	foodImage.82	FOODEEG_Images\0805.jpg	NY	Right	Yes	0.988551000016741	0	391352	253
765.3359375	0	health	response	2	93	33	foodImage.82	FOODEEG_Images\0805.jpg	NY	Right	Yes	0.988551000016741	0	391853	235
766.37890625	1	health	trialStart	2	94	34	foodImage.80	FOODEEG_Images\0796.jpg	YN	Left	Yes	0.865112700033933	0	392387	251
767.439453125	2	health	foodImageDisplay	2	94	34	foodImage.80	FOODEEG_Images\0796.jpg	YN	Left	Yes	0.865112700033933	0	392930	252
769.50390625	0.865112700033933	health	choicePhaseStart	2	94	34	foodImage.80	FOODEEG_Images\0796.jpg	YN	Left	Yes	0.865112700033933	0	393987	253
770.359375	0	health	response	2	94	34	foodImage.80	FOODEEG_Images\0796.jpg	YN	Left	Yes	0.865112700033933	0	394425	234
771.40234375	1	decision	trialStart	2	95	35	foodImage.106	FOODEEG_Images\0914.jpg	NY	Left	No	0.754800399998203	0	394959	251
772.44140625	2	decision	foodImageDisplay	2	95	35	foodImage.106	FOODEEG_Images\0914.jpg	NY	Left	No	0.754800399998203	0	395491	252
774.509765625	0.754800399998203	decision	choicePhaseStart	2	95	35	foodImage.106	FOODEEG_Images\0914.jpg	NY	Left	No	0.754800399998203	0	396550	253
775.255859375	0	decision	response	2	95	35	foodImage.106	FOODEEG_Images\0914.jpg	NY	Left	No	0.754800399998203	0	396932	234
776.298828125	1	health	trialStart	2	96	36	foodImage.33	FOODEEG_Images\0329.jpg	YN	Left	Yes	0.845019900007173	0	397466	251
777.349609375	2	health	foodImageDisplay	2	96	36	foodImage.33	FOODEEG_Images\0329.jpg	YN	Left	Yes	0.845019900007173	0	398004	252
779.412109375	0.845019900007173	health	choicePhaseStart	2	96	36	foodImage.33	FOODEEG_Images\0329.jpg	YN	Left	Yes	0.845019900007173	0	399060	253
780.248046875	0	health	response	2	96	36	foodImage.33	FOODEEG_Images\0329.jpg	YN	Left	Yes	0.845019900007173	0	399488	234
781.296875	1	taste	trialStart	2	97	37	foodImage.52	FOODEEG_Images\0539.jpg	YN	Left	Yes	0.852478099986911	0	400025	251
782.357421875	2	taste	foodImageDisplay	2	97	37	foodImage.52	FOODEEG_Images\0539.jpg	YN	Left	Yes	0.852478099986911	0	400568	252
784.419921875	0.852478099986911	taste	choicePhaseStart	2	97	37	foodImage.52	FOODEEG_Images\0539.jpg	YN	Left	Yes	0.852478099986911	0	401624	253
785.263671875	0	taste	response	2	97	37	foodImage.52	FOODEEG_Images\0539.jpg	YN	Left	Yes	0.852478099986911	0	402056	234
786.306640625	1	taste	trialStart	2	98	38	foodImage.79	FOODEEG_Images\0794.jpg	YN	Left	Yes	1.01305309997406	0	402590	251
787.37109375	2	taste	foodImageDisplay	2	98	38	foodImage.79	FOODEEG_Images\0794.jpg	YN	Left	Yes	1.01305309997406	0	403135	252
789.435546875	1.01305309997406	taste	choicePhaseStart	2	98	38	foodImage.79	FOODEEG_Images\0794.jpg	YN	Left	Yes	1.01305309997406	0	404192	253
790.439453125	0	taste	response	2	98	38	foodImage.79	FOODEEG_Images\0794.jpg	YN	Left	Yes	1.01305309997406	0	404706	234
791.482421875	1	decision	trialStart	2	99	39	foodImage.115	FOODEEG_Images\0923.jpg	YN	Right	No	1.03534219996072	0	405240	251
792.521484375	2	decision	foodImageDisplay	2	99	39	foodImage.115	FOODEEG_Images\0923.jpg	YN	Right	No	1.03534219996072	0	405772	252
794.5859375	1.03534219996072	decision	choicePhaseStart	2	99	39	foodImage.115	FOODEEG_Images\0923.jpg	YN	Right	No	1.03534219996072	0	406829	253
795.615234375	0	decision	response	2	99	39	foodImage.115	FOODEEG_Images\0923.jpg	YN	Right	No	1.03534219996072	0	407356	235
796.658203125	1	decision	trialStart	2	100	40	foodImage.91	FOODEEG_Images\0896.jpg	NY	Right	Yes	0.752474899985828	0	407890	251
797.71875	2	decision	foodImageDisplay	2	100	40	foodImage.91	FOODEEG_Images\0896.jpg	NY	Right	Yes	0.752474899985828	0	408433	252
799.78125	0.752474899985828	decision	choicePhaseStart	2	100	40	foodImage.91	FOODEEG_Images\0896.jpg	NY	Right	Yes	0.752474899985828	0	409489	253
800.52734375	0	decision	response	2	100	40	foodImage.91	FOODEEG_Images\0896.jpg	NY	Right	Yes	0.752474899985828	0	409871	235
801.5703125	1	taste	trialStart	2	101	41	foodImage.87	FOODEEG_Images\0873.jpg	YN	Left	Yes	0.963700799969956	0	410405	251
802.626953125	2	taste	foodImageDisplay	2	101	41	foodImage.87	FOODEEG_Images\0873.jpg	YN	Left	Yes	0.963700799969956	0	410946	252
804.69140625	0.963700799969956	taste	choicePhaseStart	2	101	41	foodImage.87	FOODEEG_Images\0873.jpg	YN	Left	Yes	0.963700799969956	0	412003	253
805.646484375	0	taste	response	2	101	41	foodImage.87	FOODEEG_Images\0873.jpg	YN	Left	Yes	0.963700799969956	0	412492	234
806.689453125	1	taste	trialStart	2	102	42	foodImage.114	FOODEEG_Images\0922.jpg	NY	Left	No	1.40122819994576	0	413026	251
807.7265625	2	taste	foodImageDisplay	2	102	42	foodImage.114	FOODEEG_Images\0922.jpg	NY	Left	No	1.40122819994576	0	413557	252
809.791015625	1.40122819994576	taste	choicePhaseStart	2	102	42	foodImage.114	FOODEEG_Images\0922.jpg	NY	Left	No	1.40122819994576	0	414614	253
811.181640625	0	taste	response	2	102	42	foodImage.114	FOODEEG_Images\0922.jpg	NY	Left	No	1.40122819994576	0	415326	234
812.224609375	1	health	trialStart	2	103	43	foodImage.77	FOODEEG_Images\0771.jpg	NY	Right	Yes	0.882377999951132	0	415860	251
813.26953125	2	health	foodImageDisplay	2	103	43	foodImage.77	FOODEEG_Images\0771.jpg	NY	Right	Yes	0.882377999951132	0	416395	252
815.33203125	0.882377999951132	health	choicePhaseStart	2	103	43	foodImage.77	FOODEEG_Images\0771.jpg	NY	Right	Yes	0.882377999951132	0	417451	253
816.20703125	0	health	response	2	103	43	foodImage.77	FOODEEG_Images\0771.jpg	NY	Right	Yes	0.882377999951132	0	417899	235
817.25	1	health	trialStart	2	104	44	foodImage.99	FOODEEG_Images\0907.jpg	YN	Right	No	1.12837439996656	0	418433	251
818.287109375	2	health	foodImageDisplay	2	104	44	foodImage.99	FOODEEG_Images\0907.jpg	YN	Right	No	1.12837439996656	0	418964	252
820.3515625	1.12837439996656	health	choicePhaseStart	2	104	44	foodImage.99	FOODEEG_Images\0907.jpg	YN	Right	No	1.12837439996656	0	420021	253
821.46875	0	health	response	2	104	44	foodImage.99	FOODEEG_Images\0907.jpg	YN	Right	No	1.12837439996656	0	420593	235
822.51171875	1	health	trialStart	2	105	45	foodImage.78	FOODEEG_Images\0787.jpg	YN	Left	Yes	1.14079879992642	0	421127	251
823.556640625	2	health	foodImageDisplay	2	105	45	foodImage.78	FOODEEG_Images\0787.jpg	YN	Left	Yes	1.14079879992642	0	421662	252
825.623046875	1.14079879992642	health	choicePhaseStart	2	105	45	foodImage.78	FOODEEG_Images\0787.jpg	YN	Left	Yes	1.14079879992642	0	422720	253
826.7578125	0	health	response	2	105	45	foodImage.78	FOODEEG_Images\0787.jpg	YN	Left	Yes	1.14079879992642	0	423301	234
827.798828125	1	health	trialStart	2	106	46	foodImage.67	FOODEEG_Images\0679.jpg	NY	Left	No	1.25883369997609	0	423834	251
828.861328125	2	health	foodImageDisplay	2	106	46	foodImage.67	FOODEEG_Images\0679.jpg	NY	Left	No	1.25883369997609	0	424378	252
830.923828125	1.25883369997609	health	choicePhaseStart	2	106	46	foodImage.67	FOODEEG_Images\0679.jpg	NY	Left	No	1.25883369997609	0	425434	253
832.173828125	0	health	response	2	106	46	foodImage.67	FOODEEG_Images\0679.jpg	NY	Left	No	1.25883369997609	0	426074	234
833.216796875	1	decision	trialStart	2	107	47	foodImage.83	FOODEEG_Images\0827.jpg	NY	Right	Yes	0.851059500011615	0	426608	251
834.275390625	2	decision	foodImageDisplay	2	107	47	foodImage.83	FOODEEG_Images\0827.jpg	NY	Right	Yes	0.851059500011615	0	427150	252
836.337890625	0.851059500011615	decision	choicePhaseStart	2	107	47	foodImage.83	FOODEEG_Images\0827.jpg	NY	Right	Yes	0.851059500011615	0	428206	253
837.181640625	0	decision	response	2	107	47	foodImage.83	FOODEEG_Images\0827.jpg	NY	Right	Yes	0.851059500011615	0	428638	235
838.22265625	1	decision	trialStart	2	108	48	foodImage.30	FOODEEG_Images\0282.jpg	YN	Left	Yes	1.36398950009607	0	429171	251
839.263671875	2	decision	foodImageDisplay	2	108	48	foodImage.30	FOODEEG_Images\0282.jpg	YN	Left	Yes	1.36398950009607	0	429704	252
841.328125	1.36398950009607	decision	choicePhaseStart	2	108	48	foodImage.30	FOODEEG_Images\0282.jpg	YN	Left	Yes	1.36398950009607	0	430761	253
842.685546875	0	decision	response	2	108	48	foodImage.30	FOODEEG_Images\0282.jpg	YN	Left	Yes	1.36398950009607	0	431456	234
843.728515625	1	decision	trialStart	2	109	49	foodImage.27	FOODEEG_Images\0263.jpg	YN	Left	Yes	1.02714619995095	0	431990	251
844.779296875	2	decision	foodImageDisplay	2	109	49	foodImage.27	FOODEEG_Images\0263.jpg	YN	Left	Yes	1.02714619995095	0	432528	252
846.84375	1.02714619995095	decision	choicePhaseStart	2	109	49	foodImage.27	FOODEEG_Images\0263.jpg	YN	Left	Yes	1.02714619995095	0	433585	253
847.861328125	0	decision	response	2	109	49	foodImage.27	FOODEEG_Images\0263.jpg	YN	Left	Yes	1.02714619995095	0	434106	234
848.904296875	1	decision	trialStart	2	110	50	foodImage.98	FOODEEG_Images\0906.jpg	NY	Left	No	0.984687700052746	0	434640	251
849.94921875	2	decision	foodImageDisplay	2	110	50	foodImage.98	FOODEEG_Images\0906.jpg	NY	Left	No	0.984687700052746	0	435175	252
852.013671875	0.984687700052746	decision	choicePhaseStart	2	110	50	foodImage.98	FOODEEG_Images\0906.jpg	NY	Left	No	0.984687700052746	0	436232	253
852.98828125	0	decision	response	2	110	50	foodImage.98	FOODEEG_Images\0906.jpg	NY	Left	No	0.984687700052746	0	436731	234
854.03125	1	health	trialStart	2	111	51	foodImage.41	FOODEEG_Images\0409.jpg	NY	Right	Yes	0.829861899954267	0	437265	251
855.080078125	2	health	foodImageDisplay	2	111	51	foodImage.41	FOODEEG_Images\0409.jpg	NY	Right	Yes	0.829861899954267	0	437802	252
857.14453125	0.829861899954267	health	choicePhaseStart	2	111	51	foodImage.41	FOODEEG_Images\0409.jpg	NY	Right	Yes	0.829861899954267	0	438859	253
857.96484375	0	health	response	2	111	51	foodImage.41	FOODEEG_Images\0409.jpg	NY	Right	Yes	0.829861899954267	0	439279	235
859.01953125	1	decision	trialStart	2	112	52	foodImage.58	FOODEEG_Images\0605.jpg	YN	Left	Yes	1.01996009994764	0	439819	251
860.078125	2	decision	foodImageDisplay	2	112	52	foodImage.58	FOODEEG_Images\0605.jpg	YN	Left	Yes	1.01996009994764	0	440361	252
862.146484375	1.01996009994764	decision	choicePhaseStart	2	112	52	foodImage.58	FOODEEG_Images\0605.jpg	YN	Left	Yes	1.01996009994764	0	441420	253
863.15625	0	decision	response	2	112	52	foodImage.58	FOODEEG_Images\0605.jpg	YN	Left	Yes	1.01996009994764	0	441937	234
864.19921875	1	taste	trialStart	2	113	53	foodImage.20	FOODEEG_Images\0226.jpg	YN	Left	Yes	0.887417100020684	0	442471	251
865.25390625	2	taste	foodImageDisplay	2	113	53	foodImage.20	FOODEEG_Images\0226.jpg	YN	Left	Yes	0.887417100020684	0	443011	252
867.318359375	0.887417100020684	taste	choicePhaseStart	2	113	53	foodImage.20	FOODEEG_Images\0226.jpg	YN	Left	Yes	0.887417100020684	0	444068	253
868.1953125	0	taste	response	2	113	53	foodImage.20	FOODEEG_Images\0226.jpg	YN	Left	Yes	0.887417100020684	0	444517	234
869.244140625	1	decision	trialStart	2	114	54	foodImage.101	FOODEEG_Images\0909.jpg	YN	Right	No	1.07641590002459	0	445054	251
870.28125	2	decision	foodImageDisplay	2	114	54	foodImage.101	FOODEEG_Images\0909.jpg	YN	Right	No	1.07641590002459	0	445585	252
872.345703125	1.07641590002459	decision	choicePhaseStart	2	114	54	foodImage.101	FOODEEG_Images\0909.jpg	YN	Right	No	1.07641590002459	0	446642	253
873.412109375	0	decision	response	2	114	54	foodImage.101	FOODEEG_Images\0909.jpg	YN	Right	No	1.07641590002459	0	447188	235
874.453125	1	taste	trialStart	2	115	55	foodImage.76	FOODEEG_Images\0766.jpg	NY	Right	Yes	1.03592870000284	0	447721	251
875.498046875	2	taste	foodImageDisplay	2	115	55	foodImage.76	FOODEEG_Images\0766.jpg	NY	Right	Yes	1.03592870000284	0	448256	252
877.560546875	1.03592870000284	taste	choicePhaseStart	2	115	55	foodImage.76	FOODEEG_Images\0766.jpg	NY	Right	Yes	1.03592870000284	0	449312	253
878.587890625	0	taste	response	2	115	55	foodImage.76	FOODEEG_Images\0766.jpg	NY	Right	Yes	1.03592870000284	0	449838	235
879.626953125	1	decision	trialStart	2	116	56	foodImage.102	FOODEEG_Images\0910.jpg	NY	Left	No	1.01716769998893	0	450370	251
880.66796875	2	decision	foodImageDisplay	2	116	56	foodImage.102	FOODEEG_Images\0910.jpg	NY	Left	No	1.01716769998893	0	450903	252
882.73046875	1.01716769998893	decision	choicePhaseStart	2	116	56	foodImage.102	FOODEEG_Images\0910.jpg	NY	Left	No	1.01716769998893	0	451959	253
883.740234375	0	decision	response	2	116	56	foodImage.102	FOODEEG_Images\0910.jpg	NY	Left	No	1.01716769998893	0	452476	234
884.77734375	1	health	trialStart	2	117	57	foodImage.42	FOODEEG_Images\0438.jpg	YN	Left	Yes	1.22799010004383	0	453007	251
885.865234375	2	health	foodImageDisplay	2	117	57	foodImage.42	FOODEEG_Images\0438.jpg	YN	Left	Yes	1.22799010004383	0	453564	252
887.9296875	1.22799010004383	health	choicePhaseStart	2	117	57	foodImage.42	FOODEEG_Images\0438.jpg	YN	Left	Yes	1.22799010004383	0	454621	253
889.146484375	0	health	response	2	117	57	foodImage.42	FOODEEG_Images\0438.jpg	YN	Left	Yes	1.22799010004383	0	455244	234
890.19140625	1	health	trialStart	2	118	58	foodImage.22	FOODEEG_Images\0236.jpg	YN	Left	Yes	1.32402840000577	0	455779	251
891.232421875	2	health	foodImageDisplay	2	118	58	foodImage.22	FOODEEG_Images\0236.jpg	YN	Left	Yes	1.32402840000577	0	456312	252
893.296875	1.32402840000577	health	choicePhaseStart	2	118	58	foodImage.22	FOODEEG_Images\0236.jpg	YN	Left	Yes	1.32402840000577	0	457369	253
894.611328125	0	health	response	2	118	58	foodImage.22	FOODEEG_Images\0236.jpg	YN	Left	Yes	1.32402840000577	0	458042	234
895.654296875	1	health	trialStart	2	119	59	foodImage.110	FOODEEG_Images\0918.jpg	YN	Right	No	1.08700479997788	0	458576	251
896.69921875	2	health	foodImageDisplay	2	119	59	foodImage.110	FOODEEG_Images\0918.jpg	YN	Right	No	1.08700479997788	0	459111	252
898.763671875	1.08700479997788	health	choicePhaseStart	2	119	59	foodImage.110	FOODEEG_Images\0918.jpg	YN	Right	No	1.08700479997788	0	460168	253
899.841796875	0	health	response	2	119	59	foodImage.110	FOODEEG_Images\0918.jpg	YN	Right	No	1.08700479997788	0	460720	235
900.884765625	1	decision	trialStart	2	120	60	foodImage.4	FOODEEG_Images\0065.jpg	YN	Left	Yes	0.923795999959111	0	461254	251
901.943359375	2	decision	foodImageDisplay	2	120	60	foodImage.4	FOODEEG_Images\0065.jpg	YN	Left	Yes	0.923795999959111	0	461796	252
904.0078125	0.923795999959111	decision	choicePhaseStart	2	120	60	foodImage.4	FOODEEG_Images\0065.jpg	YN	Left	Yes	0.923795999959111	0	462853	253
904.921875	0	decision	response	2	120	60	foodImage.4	FOODEEG_Images\0065.jpg	YN	Left	Yes	0.923795999959111	0	463321	234
906.9609375	5.4609375	n/a	blockEnd	n/a	n/a	n/a	n/a	n/a	n/a	n/a	n/a	n/a	n/a	464365	254
912.421875	2	n/a	blockStart	3	n/a	n/a	n/a	n/a	n/a	n/a	n/a	n/a	n/a	467161	250
914.45703125	1	taste	trialStart	3	121	1	foodImage.77	FOODEEG_Images\0771.jpg	NY	Right	Yes	1.09723349998239	0	468203	251
915.505859375	2	taste	foodImageDisplay	3	121	1	foodImage.77	FOODEEG_Images\0771.jpg	NY	Right	Yes	1.09723349998239	0	468740	252
917.5703125	1.09723349998239	taste	choicePhaseStart	3	121	1	foodImage.77	FOODEEG_Images\0771.jpg	NY	Right	Yes	1.09723349998239	0	469797	253
918.658203125	0	taste	response	3	121	1	foodImage.77	FOODEEG_Images\0771.jpg	NY	Right	Yes	1.09723349998239	0	470354	235
919.701171875	1	decision	trialStart	3	122	2	foodImage.74	FOODEEG_Images\0752.jpg	YN	Left	Yes	1.23377050005365	0	470888	251
920.76953125	2	decision	foodImageDisplay	3	122	2	foodImage.74	FOODEEG_Images\0752.jpg	YN	Left	Yes	1.23377050005365	0	471435	252
922.83203125	1.23377050005365	decision	choicePhaseStart	3	122	2	foodImage.74	FOODEEG_Images\0752.jpg	YN	Left	Yes	1.23377050005365	0	472491	253
924.05859375	0	decision	response	3	122	2	foodImage.74	FOODEEG_Images\0752.jpg	YN	Left	Yes	1.23377050005365	0	473119	234
925.09765625	1	health	trialStart	3	123	3	foodImage.100	FOODEEG_Images\0908.jpg	YN	Left	Yes	0.815421000006609	0	473651	251
926.140625	2	health	foodImageDisplay	3	123	3	foodImage.100	FOODEEG_Images\0908.jpg	YN	Left	Yes	0.815421000006609	0	474185	252
928.203125	0.815421000006609	health	choicePhaseStart	3	123	3	foodImage.100	FOODEEG_Images\0908.jpg	YN	Left	Yes	0.815421000006609	0	475241	253
929.009765625	0	health	response	3	123	3	foodImage.100	FOODEEG_Images\0908.jpg	YN	Left	Yes	0.815421000006609	0	475654	234
930.052734375	1	health	trialStart	3	124	4	foodImage.92	FOODEEG_Images\0900.jpg	YN	Right	No	0.777201399905607	0	476188	251
931.08984375	2	health	foodImageDisplay	3	124	4	foodImage.92	FOODEEG_Images\0900.jpg	YN	Right	No	0.777201399905607	0	476719	252
933.15234375	0.777201399905607	health	choicePhaseStart	3	124	4	foodImage.92	FOODEEG_Images\0900.jpg	YN	Right	No	0.777201399905607	0	477775	253
933.921875	0	health	response	3	124	4	foodImage.92	FOODEEG_Images\0900.jpg	YN	Right	No	0.777201399905607	0	478169	235
934.96484375	1	decision	trialStart	3	125	5	foodImage.41	FOODEEG_Images\0409.jpg	YN	Left	Yes	0.815273399930447	0	478703	251
936.01171875	2	decision	foodImageDisplay	3	125	5	foodImage.41	FOODEEG_Images\0409.jpg	YN	Left	Yes	0.815273399930447	0	479239	252
938.076171875	0.815273399930447	decision	choicePhaseStart	3	125	5	foodImage.41	FOODEEG_Images\0409.jpg	YN	Left	Yes	0.815273399930447	0	480296	253
938.880859375	0	decision	response	3	125	5	foodImage.41	FOODEEG_Images\0409.jpg	YN	Left	Yes	0.815273399930447	0	480708	234
939.923828125	1	health	trialStart	3	126	6	foodImage.1	FOODEEG_Images\0004.jpg	NY	Left	No	1.04251840000506	0	481242	251
940.966796875	2	health	foodImageDisplay	3	126	6	foodImage.1	FOODEEG_Images\0004.jpg	NY	Left	No	1.04251840000506	0	481776	252
943.03125	1.04251840000506	health	choicePhaseStart	3	126	6	foodImage.1	FOODEEG_Images\0004.jpg	NY	Left	No	1.04251840000506	0	482833	253
944.064453125	0	health	response	3	126	6	foodImage.1	FOODEEG_Images\0004.jpg	NY	Left	No	1.04251840000506	0	483362	234
945.111328125	1	health	trialStart	3	127	7	foodImage.34	FOODEEG_Images\0339.jpg	NY	Left	No	0.884295299998485	0	483898	251
946.16796875	2	health	foodImageDisplay	3	127	7	foodImage.34	FOODEEG_Images\0339.jpg	NY	Left	No	0.884295299998485	0	484439	252
948.23046875	0.884295299998485	health	choicePhaseStart	3	127	7	foodImage.34	FOODEEG_Images\0339.jpg	NY	Left	No	0.884295299998485	0	485495	253
949.10546875	0	health	response	3	127	7	foodImage.34	FOODEEG_Images\0339.jpg	NY	Left	No	0.884295299998485	0	485943	234
950.1484375	1	decision	trialStart	3	128	8	foodImage.72	FOODEEG_Images\0714.jpg	NY	Left	No	1.57119210006204	0	486477	251
951.189453125	2	decision	foodImageDisplay	3	128	8	foodImage.72	FOODEEG_Images\0714.jpg	NY	Left	No	1.57119210006204	0	487010	252
953.251953125	1.57119210006204	decision	choicePhaseStart	3	128	8	foodImage.72	FOODEEG_Images\0714.jpg	NY	Left	No	1.57119210006204	0	488066	253
954.81640625	0	decision	response	3	128	8	foodImage.72	FOODEEG_Images\0714.jpg	NY	Left	No	1.57119210006204	0	488867	234
955.857421875	1	health	trialStart	3	129	9	foodImage.19	FOODEEG_Images\0225.jpg	NY	Right	Yes	0.982659200089984	0	489400	251
956.8984375	2	health	foodImageDisplay	3	129	9	foodImage.19	FOODEEG_Images\0225.jpg	NY	Right	Yes	0.982659200089984	0	489933	252
958.962890625	0.982659200089984	health	choicePhaseStart	3	129	9	foodImage.19	FOODEEG_Images\0225.jpg	NY	Right	Yes	0.982659200089984	0	490990	253
959.935546875	0	health	response	3	129	9	foodImage.19	FOODEEG_Images\0225.jpg	NY	Right	Yes	0.982659200089984	0	491488	235
960.978515625	1	decision	trialStart	3	130	10	foodImage.73	FOODEEG_Images\0717.jpg	NY	Right	Yes	1.1135453999741	0	492022	251
962.041015625	2	decision	foodImageDisplay	3	130	10	foodImage.73	FOODEEG_Images\0717.jpg	NY	Right	Yes	1.1135453999741	0	492566	252
964.103515625	1.1135453999741	decision	choicePhaseStart	3	130	10	foodImage.73	FOODEEG_Images\0717.jpg	NY	Right	Yes	1.1135453999741	0	493622	253
965.20703125	0	decision	response	3	130	10	foodImage.73	FOODEEG_Images\0717.jpg	NY	Right	Yes	1.1135453999741	0	494187	235
966.251953125	1	health	trialStart	3	131	11	foodImage.47	FOODEEG_Images\0488.jpg	YN	Right	No	1.0189860999817	0	494722	251
967.294921875	2	health	foodImageDisplay	3	131	11	foodImage.47	FOODEEG_Images\0488.jpg	YN	Right	No	1.0189860999817	0	495256	252
969.357421875	1.0189860999817	health	choicePhaseStart	3	131	11	foodImage.47	FOODEEG_Images\0488.jpg	YN	Right	No	1.0189860999817	0	496312	253
970.3671875	0	health	response	3	131	11	foodImage.47	FOODEEG_Images\0488.jpg	YN	Right	No	1.0189860999817	0	496829	235
971.421875	1	taste	trialStart	3	132	12	foodImage.30	FOODEEG_Images\0282.jpg	NY	Right	Yes	1.00071619998198	0	497369	251
972.46484375	2	taste	foodImageDisplay	3	132	12	foodImage.30	FOODEEG_Images\0282.jpg	NY	Right	Yes	1.00071619998198	0	497903	252
974.52734375	1.00071619998198	taste	choicePhaseStart	3	132	12	foodImage.30	FOODEEG_Images\0282.jpg	NY	Right	Yes	1.00071619998198	0	498959	253
975.51953125	0	taste	response	3	132	12	foodImage.30	FOODEEG_Images\0282.jpg	NY	Right	Yes	1.00071619998198	0	499467	235
976.5625	1	decision	trialStart	3	133	13	foodImage.55	FOODEEG_Images\0567.jpg	YN	Left	Yes	1.13432569999713	0	500001	251
977.619140625	2	decision	foodImageDisplay	3	133	13	foodImage.55	FOODEEG_Images\0567.jpg	YN	Left	Yes	1.13432569999713	0	500542	252
979.681640625	1.13432569999713	decision	choicePhaseStart	3	133	13	foodImage.55	FOODEEG_Images\0567.jpg	YN	Left	Yes	1.13432569999713	0	501598	253
980.80859375	0	decision	response	3	133	13	foodImage.55	FOODEEG_Images\0567.jpg	YN	Left	Yes	1.13432569999713	0	502175	234
981.853515625	1	decision	trialStart	3	134	14	foodImage.10	FOODEEG_Images\0145.jpg	YN	Left	Yes	1.19423219992314	0	502710	251
982.91015625	2	decision	foodImageDisplay	3	134	14	foodImage.10	FOODEEG_Images\0145.jpg	YN	Left	Yes	1.19423219992314	0	503251	252
984.974609375	1.19423219992314	decision	choicePhaseStart	3	134	14	foodImage.10	FOODEEG_Images\0145.jpg	YN	Left	Yes	1.19423219992314	0	504308	253
986.16015625	0	decision	response	3	134	14	foodImage.10	FOODEEG_Images\0145.jpg	YN	Left	Yes	1.19423219992314	0	504915	234
987.203125	1	health	trialStart	3	135	15	foodImage.76	FOODEEG_Images\0766.jpg	NY	Right	Yes	0.871671700035222	0	505449	251
988.248046875	2	health	foodImageDisplay	3	135	15	foodImage.76	FOODEEG_Images\0766.jpg	NY	Right	Yes	0.871671700035222	0	505984	252
990.310546875	0.871671700035222	health	choicePhaseStart	3	135	15	foodImage.76	FOODEEG_Images\0766.jpg	NY	Right	Yes	0.871671700035222	0	507040	253
991.17578125	0	health	response	3	135	15	foodImage.76	FOODEEG_Images\0766.jpg	NY	Right	Yes	0.871671700035222	0	507483	235
992.22265625	1	decision	trialStart	3	136	16	foodImage.88	FOODEEG_Images\0878.jpg	NY	Right	Yes	1.07508570002392	0	508019	251
993.27734375	2	decision	foodImageDisplay	3	136	16	foodImage.88	FOODEEG_Images\0878.jpg	NY	Right	Yes	1.07508570002392	0	508559	252
995.341796875	1.07508570002392	decision	choicePhaseStart	3	136	16	foodImage.88	FOODEEG_Images\0878.jpg	NY	Right	Yes	1.07508570002392	0	509616	253
996.40625	0	decision	response	3	136	16	foodImage.88	FOODEEG_Images\0878.jpg	NY	Right	Yes	1.07508570002392	0	510161	235
997.451171875	1	decision	trialStart	3	137	17	foodImage.29	FOODEEG_Images\0278.jpg	YN	Left	Yes	0.994980699964799	0	510696	251
998.494140625	2	decision	foodImageDisplay	3	137	17	foodImage.29	FOODEEG_Images\0278.jpg	YN	Left	Yes	0.994980699964799	0	511230	252
1000.556640625	0.994980699964799	decision	choicePhaseStart	3	137	17	foodImage.29	FOODEEG_Images\0278.jpg	YN	Left	Yes	0.994980699964799	0	512286	253
1001.54296875	0	decision	response	3	137	17	foodImage.29	FOODEEG_Images\0278.jpg	YN	Left	Yes	0.994980699964799	0	512791	234
1002.58984375	1	health	trialStart	3	138	18	foodImage.109	FOODEEG_Images\0917.jpg	NY	Left	No	1.46739780006465	0	513327	251
1003.64453125	2	health	foodImageDisplay	3	138	18	foodImage.109	FOODEEG_Images\0917.jpg	NY	Left	No	1.46739780006465	0	513867	252
1005.70703125	1.46739780006465	health	choicePhaseStart	3	138	18	foodImage.109	FOODEEG_Images\0917.jpg	NY	Left	No	1.46739780006465	0	514923	253
1007.166015625	0	health	response	3	138	18	foodImage.109	FOODEEG_Images\0917.jpg	NY	Left	No	1.46739780006465	0	515670	234
1008.208984375	1	health	trialStart	3	139	19	foodImage.111	FOODEEG_Images\0919.jpg	NY	Left	No	1.11228070000652	0	516204	251
1009.248046875	2	health	foodImageDisplay	3	139	19	foodImage.111	FOODEEG_Images\0919.jpg	NY	Left	No	1.11228070000652	0	516736	252
1011.310546875	1.11228070000652	health	choicePhaseStart	3	139	19	foodImage.111	FOODEEG_Images\0919.jpg	NY	Left	No	1.11228070000652	0	517792	253
1012.416015625	0	health	response	3	139	19	foodImage.111	FOODEEG_Images\0919.jpg	NY	Left	No	1.11228070000652	0	518358	234
1013.455078125	1	taste	trialStart	3	140	20	foodImage.96	FOODEEG_Images\0904.jpg	YN	Left	Yes	1.34575119998772	0	518890	251
1014.494140625	2	taste	foodImageDisplay	3	140	20	foodImage.96	FOODEEG_Images\0904.jpg	YN	Left	Yes	1.34575119998772	0	519422	252
1016.556640625	1.34575119998772	taste	choicePhaseStart	3	140	20	foodImage.96	FOODEEG_Images\0904.jpg	YN	Left	Yes	1.34575119998772	0	520478	253
1017.89453125	0	taste	response	3	140	20	foodImage.96	FOODEEG_Images\0904.jpg	YN	Left	Yes	1.34575119998772	0	521163	234
1018.9375	1	taste	trialStart	3	141	21	foodImage.72	FOODEEG_Images\0714.jpg	NY	Left	No	0.940462500089779	0	521697	251
1019.98046875	2	taste	foodImageDisplay	3	141	21	foodImage.72	FOODEEG_Images\0714.jpg	NY	Left	No	0.940462500089779	0	522231	252
1022.04296875	0.940462500089779	taste	choicePhaseStart	3	141	21	foodImage.72	FOODEEG_Images\0714.jpg	NY	Left	No	0.940462500089779	0	523287	253
1022.974609375	0	taste	response	3	141	21	foodImage.72	FOODEEG_Images\0714.jpg	NY	Left	No	0.940462500089779	0	523764	234
1024.017578125	1	decision	trialStart	3	142	22	foodImage.14	FOODEEG_Images\0188.jpg	YN	Left	Yes	0.998746500001289	0	524298	251
1025.078125	2	decision	foodImageDisplay	3	142	22	foodImage.14	FOODEEG_Images\0188.jpg	YN	Left	Yes	0.998746500001289	0	524841	252
1027.142578125	0.998746500001289	decision	choicePhaseStart	3	142	22	foodImage.14	FOODEEG_Images\0188.jpg	YN	Left	Yes	0.998746500001289	0	525898	253
1028.1328125	0	decision	response	3	142	22	foodImage.14	FOODEEG_Images\0188.jpg	YN	Left	Yes	0.998746500001289	0	526405	234
1029.17578125	1	taste	trialStart	3	143	23	foodImage.21	FOODEEG_Images\0234.jpg	NY	Right	Yes	1.00413599994499	0	526939	251
1030.234375	2	taste	foodImageDisplay	3	143	23	foodImage.21	FOODEEG_Images\0234.jpg	NY	Right	Yes	1.00413599994499	0	527481	252
1032.298828125	1.00413599994499	taste	choicePhaseStart	3	143	23	foodImage.21	FOODEEG_Images\0234.jpg	NY	Right	Yes	1.00413599994499	0	528538	253
1033.29296875	0	taste	response	3	143	23	foodImage.21	FOODEEG_Images\0234.jpg	NY	Right	Yes	1.00413599994499	0	529047	235
1034.3359375	1	taste	trialStart	3	144	24	foodImage.27	FOODEEG_Images\0263.jpg	NY	Right	Yes	1.03187179996166	0	529581	251
1035.37890625	2	taste	foodImageDisplay	3	144	24	foodImage.27	FOODEEG_Images\0263.jpg	NY	Right	Yes	1.03187179996166	0	530115	252
1037.447265625	1.03187179996166	taste	choicePhaseStart	3	144	24	foodImage.27	FOODEEG_Images\0263.jpg	NY	Right	Yes	1.03187179996166	0	531174	253
1038.46875	0	taste	response	3	144	24	foodImage.27	FOODEEG_Images\0263.jpg	NY	Right	Yes	1.03187179996166	0	531697	235
1039.513671875	1	health	trialStart	3	145	25	foodImage.7	FOODEEG_Images\0116.jpg	NY	Left	No	0.965604400029406	0	532232	251
1040.5546875	2	health	foodImageDisplay	3	145	25	foodImage.7	FOODEEG_Images\0116.jpg	NY	Left	No	0.965604400029406	0	532765	252
1042.6171875	0.965604400029406	health	choicePhaseStart	3	145	25	foodImage.7	FOODEEG_Images\0116.jpg	NY	Left	No	0.965604400029406	0	533821	253
1043.572265625	0	health	response	3	145	25	foodImage.7	FOODEEG_Images\0116.jpg	NY	Left	No	0.965604400029406	0	534310	234
1044.6171875	1	health	trialStart	3	146	26	foodImage.24	FOODEEG_Images\0250.jpg	NY	Right	Yes	0.879381000064313	0	534845	251
1045.66015625	2	health	foodImageDisplay	3	146	26	foodImage.24	FOODEEG_Images\0250.jpg	NY	Right	Yes	0.879381000064313	0	535379	252
1047.72265625	0.879381000064313	health	choicePhaseStart	3	146	26	foodImage.24	FOODEEG_Images\0250.jpg	NY	Right	Yes	0.879381000064313	0	536435	253
1048.59765625	0	health	response	3	146	26	foodImage.24	FOODEEG_Images\0250.jpg	NY	Right	Yes	0.879381000064313	0	536883	235
1049.638671875	1	taste	trialStart	3	147	27	foodImage.117	FOODEEG_Images\0925.jpg	NY	Left	No	0.835265800007619	0	537416	251
1050.68359375	2	taste	foodImageDisplay	3	147	27	foodImage.117	FOODEEG_Images\0925.jpg	NY	Left	No	0.835265800007619	0	537951	252
1052.748046875	0.835265800007619	taste	choicePhaseStart	3	147	27	foodImage.117	FOODEEG_Images\0925.jpg	NY	Left	No	0.835265800007619	0	539008	253
1053.572265625	0	taste	response	3	147	27	foodImage.117	FOODEEG_Images\0925.jpg	NY	Left	No	0.835265800007619	0	539430	234
1054.61328125	1	health	trialStart	3	148	28	foodImage.35	FOODEEG_Images\0350.jpg	NY	Right	Yes	1.55267160001677	0	539963	251
1055.654296875	2	health	foodImageDisplay	3	148	28	foodImage.35	FOODEEG_Images\0350.jpg	NY	Right	Yes	1.55267160001677	0	540496	252
1057.716796875	1.55267160001677	health	choicePhaseStart	3	148	28	foodImage.35	FOODEEG_Images\0350.jpg	NY	Right	Yes	1.55267160001677	0	541552	253
1059.259765625	0	health	response	3	148	28	foodImage.35	FOODEEG_Images\0350.jpg	NY	Right	Yes	1.55267160001677	0	542342	235
1060.3046875	1	decision	trialStart	3	149	29	foodImage.80	FOODEEG_Images\0796.jpg	NY	Right	Yes	1.23627400002442	0	542877	251
1061.37109375	2	decision	foodImageDisplay	3	149	29	foodImage.80	FOODEEG_Images\0796.jpg	NY	Right	Yes	1.23627400002442	0	543423	252
1063.439453125	1.23627400002442	decision	choicePhaseStart	3	149	29	foodImage.80	FOODEEG_Images\0796.jpg	NY	Right	Yes	1.23627400002442	0	544482	253
1064.66796875	0	decision	response	3	149	29	foodImage.80	FOODEEG_Images\0796.jpg	NY	Right	Yes	1.23627400002442	0	545111	235
1065.712890625	1	taste	trialStart	3	150	30	foodImage.56	FOODEEG_Images\0586.jpg	NY	Right	Yes	0.783954899990931	0	545646	251
1066.7578125	2	taste	foodImageDisplay	3	150	30	foodImage.56	FOODEEG_Images\0586.jpg	NY	Right	Yes	0.783954899990931	0	546181	252
1068.8203125	0.783954899990931	taste	choicePhaseStart	3	150	30	foodImage.56	FOODEEG_Images\0586.jpg	NY	Right	Yes	0.783954899990931	0	547237	253
1069.595703125	0	taste	response	3	150	30	foodImage.56	FOODEEG_Images\0586.jpg	NY	Right	Yes	0.783954899990931	0	547634	235
1070.638671875	1	taste	trialStart	3	151	31	foodImage.63	FOODEEG_Images\0645.jpg	YN	Left	Yes	0.857668100041337	0	548168	251
1071.68359375	2	taste	foodImageDisplay	3	151	31	foodImage.63	FOODEEG_Images\0645.jpg	YN	Left	Yes	0.857668100041337	0	548703	252
1073.74609375	0.857668100041337	taste	choicePhaseStart	3	151	31	foodImage.63	FOODEEG_Images\0645.jpg	YN	Left	Yes	0.857668100041337	0	549759	253
1074.595703125	0	taste	response	3	151	31	foodImage.63	FOODEEG_Images\0645.jpg	YN	Left	Yes	0.857668100041337	0	550194	234
1075.638671875	1	health	trialStart	3	152	32	foodImage.118	FOODEEG_Images\0926.jpg	YN	Right	No	1.07169429992791	0	550728	251
1076.677734375	2	health	foodImageDisplay	3	152	32	foodImage.118	FOODEEG_Images\0926.jpg	YN	Right	No	1.07169429992791	0	551260	252
1078.7421875	1.07169429992791	health	choicePhaseStart	3	152	32	foodImage.118	FOODEEG_Images\0926.jpg	YN	Right	No	1.07169429992791	0	552317	253
1079.802734375	0	health	response	3	152	32	foodImage.118	FOODEEG_Images\0926.jpg	YN	Right	No	1.07169429992791	0	552860	235
1080.84375	1	health	trialStart	3	153	33	foodImage.107	FOODEEG_Images\0915.jpg	YN	Right	No	1.69211900001392	0	553393	251
1081.8828125	2	health	foodImageDisplay	3	153	33	foodImage.107	FOODEEG_Images\0915.jpg	YN	Right	No	1.69211900001392	0	553925	252
1083.9453125	1.69211900001392	health	choicePhaseStart	3	153	33	foodImage.107	FOODEEG_Images\0915.jpg	YN	Right	No	1.69211900001392	0	554981	253
1085.626953125	0	health	response	3	153	33	foodImage.107	FOODEEG_Images\0915.jpg	YN	Right	No	1.69211900001392	0	555842	235
1086.671875	1	decision	trialStart	3	154	34	foodImage.81	FOODEEG_Images\0797.jpg	YN	Left	Yes	0.966034100041725	0	556377	251
1087.73046875	2	decision	foodImageDisplay	3	154	34	foodImage.81	FOODEEG_Images\0797.jpg	YN	Left	Yes	0.966034100041725	0	556919	252
1089.798828125	0.966034100041725	decision	choicePhaseStart	3	154	34	foodImage.81	FOODEEG_Images\0797.jpg	YN	Left	Yes	0.966034100041725	0	557978	253
1090.755859375	0	decision	response	3	154	34	foodImage.81	FOODEEG_Images\0797.jpg	YN	Left	Yes	0.966034100041725	0	558468	234
1091.798828125	1	taste	trialStart	3	155	35	foodImage.49	FOODEEG_Images\0515.jpg	NY	Right	Yes	1.17163490003441	0	559002	251
1092.841796875	2	taste	foodImageDisplay	3	155	35	foodImage.49	FOODEEG_Images\0515.jpg	NY	Right	Yes	1.17163490003441	0	559536	252
1094.904296875	1.17163490003441	taste	choicePhaseStart	3	155	35	foodImage.49	FOODEEG_Images\0515.jpg	NY	Right	Yes	1.17163490003441	0	560592	253
1096.06640625	0	taste	response	3	155	35	foodImage.49	FOODEEG_Images\0515.jpg	NY	Right	Yes	1.17163490003441	0	561187	235
1097.111328125	1	decision	trialStart	3	156	36	foodImage.94	FOODEEG_Images\0902.jpg	NY	Right	Yes	0.901580600067973	0	561722	251
1098.1484375	2	decision	foodImageDisplay	3	156	36	foodImage.94	FOODEEG_Images\0902.jpg	NY	Right	Yes	0.901580600067973	0	562253	252
1100.21484375	0.901580600067973	decision	choicePhaseStart	3	156	36	foodImage.94	FOODEEG_Images\0902.jpg	NY	Right	Yes	0.901580600067973	0	563311	253
1101.107421875	0	decision	response	3	156	36	foodImage.94	FOODEEG_Images\0902.jpg	NY	Right	Yes	0.901580600067973	0	563768	235
1102.1484375	1	taste	trialStart	3	157	37	foodImage.46	FOODEEG_Images\0479.jpg	YN	Left	Yes	1.51714460004587	0	564301	251
1103.20703125	2	taste	foodImageDisplay	3	157	37	foodImage.46	FOODEEG_Images\0479.jpg	YN	Left	Yes	1.51714460004587	0	564843	252
1105.26953125	1.51714460004587	taste	choicePhaseStart	3	157	37	foodImage.46	FOODEEG_Images\0479.jpg	YN	Left	Yes	1.51714460004587	0	565899	253
1106.779296875	0	taste	response	3	157	37	foodImage.46	FOODEEG_Images\0479.jpg	YN	Left	Yes	1.51714460004587	0	566672	234
1107.82421875	1	taste	trialStart	3	158	38	foodImage.73	FOODEEG_Images\0717.jpg	YN	Left	Yes	0.883853000006638	0	567207	251
1108.904296875	2	taste	foodImageDisplay	3	158	38	foodImage.73	FOODEEG_Images\0717.jpg	YN	Left	Yes	0.883853000006638	0	567760	252
1110.96875	0.883853000006638	taste	choicePhaseStart	3	158	38	foodImage.73	FOODEEG_Images\0717.jpg	YN	Left	Yes	0.883853000006638	0	568817	253
1111.841796875	0	taste	response	3	158	38	foodImage.73	FOODEEG_Images\0717.jpg	YN	Left	Yes	0.883853000006638	0	569264	234
1112.88671875	1	health	trialStart	3	159	39	foodImage.23	FOODEEG_Images\0244.jpg	YN	Left	Yes	0.855064999894239	0	569799	251
1113.927734375	2	health	foodImageDisplay	3	159	39	foodImage.23	FOODEEG_Images\0244.jpg	YN	Left	Yes	0.855064999894239	0	570332	252
1115.99609375	0.855064999894239	health	choicePhaseStart	3	159	39	foodImage.23	FOODEEG_Images\0244.jpg	YN	Left	Yes	0.855064999894239	0	571391	253
1116.841796875	0	health	response	3	159	39	foodImage.23	FOODEEG_Images\0244.jpg	YN	Left	Yes	0.855064999894239	0	571824	234
1117.888671875	1	decision	trialStart	3	160	40	foodImage.8	FOODEEG_Images\0136.jpg	YN	Left	Yes	0.854863399988972	0	572360	251
1118.93359375	2	decision	foodImageDisplay	3	160	40	foodImage.8	FOODEEG_Images\0136.jpg	YN	Left	Yes	0.854863399988972	0	572895	252
1120.99609375	0.854863399988972	decision	choicePhaseStart	3	160	40	foodImage.8	FOODEEG_Images\0136.jpg	YN	Left	Yes	0.854863399988972	0	573951	253
1121.841796875	0	decision	response	3	160	40	foodImage.8	FOODEEG_Images\0136.jpg	YN	Left	Yes	0.854863399988972	0	574384	234
1122.884765625	1	decision	trialStart	3	161	41	foodImage.110	FOODEEG_Images\0918.jpg	NY	Left	No	1.06280419998802	0	574918	251
1123.923828125	2	decision	foodImageDisplay	3	161	41	foodImage.110	FOODEEG_Images\0918.jpg	NY	Left	No	1.06280419998802	0	575450	252
1125.986328125	1.06280419998802	decision	choicePhaseStart	3	161	41	foodImage.110	FOODEEG_Images\0918.jpg	NY	Left	No	1.06280419998802	0	576506	253
1127.041015625	0	decision	response	3	161	41	foodImage.110	FOODEEG_Images\0918.jpg	NY	Left	No	1.06280419998802	0	577046	234
1128.083984375	1	decision	trialStart	3	162	42	foodImage.65	FOODEEG_Images\0658.jpg	YN	Right	No	1.23648949991912	0	577580	251
1129.126953125	2	decision	foodImageDisplay	3	162	42	foodImage.65	FOODEEG_Images\0658.jpg	YN	Right	No	1.23648949991912	0	578114	252
1131.189453125	1.23648949991912	decision	choicePhaseStart	3	162	42	foodImage.65	FOODEEG_Images\0658.jpg	YN	Right	No	1.23648949991912	0	579170	253
1132.41796875	0	decision	response	3	162	42	foodImage.65	FOODEEG_Images\0658.jpg	YN	Right	No	1.23648949991912	0	579799	235
1133.4609375	1	taste	trialStart	3	163	43	foodImage.85	FOODEEG_Images\0841.jpg	YN	Left	Yes	0.863619399955496	0	580333	251
1134.517578125	2	taste	foodImageDisplay	3	163	43	foodImage.85	FOODEEG_Images\0841.jpg	YN	Left	Yes	0.863619399955496	0	580874	252
1136.580078125	0.863619399955496	taste	choicePhaseStart	3	163	43	foodImage.85	FOODEEG_Images\0841.jpg	YN	Left	Yes	0.863619399955496	0	581930	253
1137.43359375	0	taste	response	3	163	43	foodImage.85	FOODEEG_Images\0841.jpg	YN	Left	Yes	0.863619399955496	0	582367	234
1138.4765625	1	taste	trialStart	3	164	44	foodImage.112	FOODEEG_Images\0920.jpg	NY	Left	No	1.13600119994953	0	582901	251
1139.515625	2	taste	foodImageDisplay	3	164	44	foodImage.112	FOODEEG_Images\0920.jpg	NY	Left	No	1.13600119994953	0	583433	252
1141.578125	1.13600119994953	taste	choicePhaseStart	3	164	44	foodImage.112	FOODEEG_Images\0920.jpg	NY	Left	No	1.13600119994953	0	584489	253
1142.705078125	0	taste	response	3	164	44	foodImage.112	FOODEEG_Images\0920.jpg	NY	Left	No	1.13600119994953	0	585066	234
1143.75	1	taste	trialStart	3	165	45	foodImage.93	FOODEEG_Images\0901.jpg	YN	Right	No	0.971818699967116	0	585601	251
1144.7890625	2	taste	foodImageDisplay	3	165	45	foodImage.93	FOODEEG_Images\0901.jpg	YN	Right	No	0.971818699967116	0	586133	252
1146.853515625	0.971818699967116	taste	choicePhaseStart	3	165	45	foodImage.93	FOODEEG_Images\0901.jpg	YN	Right	No	0.971818699967116	0	587190	253
1147.81640625	0	taste	response	3	165	45	foodImage.93	FOODEEG_Images\0901.jpg	YN	Right	No	0.971818699967116	0	587683	235
1148.861328125	1	taste	trialStart	3	166	46	foodImage.108	FOODEEG_Images\0916.jpg	NY	Left	No	0.887629400007427	0	588218	251
1149.8984375	2	taste	foodImageDisplay	3	166	46	foodImage.108	FOODEEG_Images\0916.jpg	NY	Left	No	0.887629400007427	0	588749	252
1151.962890625	0.887629400007427	taste	choicePhaseStart	3	166	46	foodImage.108	FOODEEG_Images\0916.jpg	NY	Left	No	0.887629400007427	0	589806	253
1152.841796875	0	taste	response	3	166	46	foodImage.108	FOODEEG_Images\0916.jpg	NY	Left	No	0.887629400007427	0	590256	234
1153.884765625	1	decision	trialStart	3	167	47	foodImage.95	FOODEEG_Images\0903.jpg	YN	Right	No	1.16578839998692	0	590790	251
1154.921875	2	decision	foodImageDisplay	3	167	47	foodImage.95	FOODEEG_Images\0903.jpg	YN	Right	No	1.16578839998692	0	591321	252
1156.984375	1.16578839998692	decision	choicePhaseStart	3	167	47	foodImage.95	FOODEEG_Images\0903.jpg	YN	Right	No	1.16578839998692	0	592377	253
1158.14453125	0	decision	response	3	167	47	foodImage.95	FOODEEG_Images\0903.jpg	YN	Right	No	1.16578839998692	0	592971	235
1159.1875	1	health	trialStart	3	168	48	foodImage.68	FOODEEG_Images\0685.jpg	NY	Right	Yes	1.34853790001944	0	593505	251
1160.29296875	2	health	foodImageDisplay	3	168	48	foodImage.68	FOODEEG_Images\0685.jpg	NY	Right	Yes	1.34853790001944	0	594071	252
1162.357421875	1.34853790001944	health	choicePhaseStart	3	168	48	foodImage.68	FOODEEG_Images\0685.jpg	NY	Right	Yes	1.34853790001944	0	595128	253
1163.697265625	0	health	response	3	168	48	foodImage.68	FOODEEG_Images\0685.jpg	NY	Right	Yes	1.34853790001944	0	595814	235
1164.73828125	1	taste	trialStart	3	169	49	foodImage.26	FOODEEG_Images\0262.jpg	NY	Right	Yes	0.83754780003801	0	596347	251
1165.779296875	2	taste	foodImageDisplay	3	169	49	foodImage.26	FOODEEG_Images\0262.jpg	NY	Right	Yes	0.83754780003801	0	596880	252
1167.84375	0.83754780003801	taste	choicePhaseStart	3	169	49	foodImage.26	FOODEEG_Images\0262.jpg	NY	Right	Yes	0.83754780003801	0	597937	253
1168.671875	0	taste	response	3	169	49	foodImage.26	FOODEEG_Images\0262.jpg	NY	Right	Yes	0.83754780003801	0	598361	235
1169.716796875	1	decision	trialStart	3	170	50	foodImage.5	FOODEEG_Images\0107.jpg	NY	Right	Yes	1.06846729991958	0	598896	251
1170.7734375	2	decision	foodImageDisplay	3	170	50	foodImage.5	FOODEEG_Images\0107.jpg	NY	Right	Yes	1.06846729991958	0	599437	252
1172.8359375	1.06846729991958	decision	choicePhaseStart	3	170	50	foodImage.5	FOODEEG_Images\0107.jpg	NY	Right	Yes	1.06846729991958	0	600493	253
1173.896484375	0	decision	response	3	170	50	foodImage.5	FOODEEG_Images\0107.jpg	NY	Right	Yes	1.06846729991958	0	601036	235
1174.9375	1	taste	trialStart	3	171	51	foodImage.100	FOODEEG_Images\0908.jpg	YN	Left	Yes	0.831347299972549	0	601569	251
1175.9765625	2	taste	foodImageDisplay	3	171	51	foodImage.100	FOODEEG_Images\0908.jpg	YN	Left	Yes	0.831347299972549	0	602101	252
1178.041015625	0.831347299972549	taste	choicePhaseStart	3	171	51	foodImage.100	FOODEEG_Images\0908.jpg	YN	Left	Yes	0.831347299972549	0	603158	253
1178.86328125	0	taste	response	3	171	51	foodImage.100	FOODEEG_Images\0908.jpg	YN	Left	Yes	0.831347299972549	0	603579	234
1179.90625	1	taste	trialStart	3	172	52	foodImage.18	FOODEEG_Images\0202.jpg	YN	Left	Yes	1.55198530002963	0	604113	251
1180.9609375	2	taste	foodImageDisplay	3	172	52	foodImage.18	FOODEEG_Images\0202.jpg	YN	Left	Yes	1.55198530002963	0	604653	252
1183.025390625	1.55198530002963	taste	choicePhaseStart	3	172	52	foodImage.18	FOODEEG_Images\0202.jpg	YN	Left	Yes	1.55198530002963	0	605710	253
1184.568359375	0	taste	response	3	172	52	foodImage.18	FOODEEG_Images\0202.jpg	YN	Left	Yes	1.55198530002963	0	606500	234
1185.609375	1	health	trialStart	3	173	53	foodImage.115	FOODEEG_Images\0923.jpg	NY	Left	No	1.19753060000949	0	607033	251
1186.6484375	2	health	foodImageDisplay	3	173	53	foodImage.115	FOODEEG_Images\0923.jpg	NY	Left	No	1.19753060000949	0	607565	252
1188.712890625	1.19753060000949	health	choicePhaseStart	3	173	53	foodImage.115	FOODEEG_Images\0923.jpg	NY	Left	No	1.19753060000949	0	608622	253
1189.90234375	0	health	response	3	173	53	foodImage.115	FOODEEG_Images\0923.jpg	NY	Left	No	1.19753060000949	0	609231	234
1190.9453125	1	taste	trialStart	3	174	54	foodImage.78	FOODEEG_Images\0787.jpg	NY	Right	Yes	1.45675180002581	0	609765	251
1191.990234375	2	taste	foodImageDisplay	3	174	54	foodImage.78	FOODEEG_Images\0787.jpg	NY	Right	Yes	1.45675180002581	0	610300	252
1194.052734375	1.45675180002581	taste	choicePhaseStart	3	174	54	foodImage.78	FOODEEG_Images\0787.jpg	NY	Right	Yes	1.45675180002581	0	611356	253
1195.50390625	0	taste	response	3	174	54	foodImage.78	FOODEEG_Images\0787.jpg	NY	Right	Yes	1.45675180002581	0	612099	235
1196.552734375	1	decision	trialStart	3	175	55	foodImage.93	FOODEEG_Images\0901.jpg	YN	Right	No	1.0325193000026	0	612636	251
1197.591796875	2	decision	foodImageDisplay	3	175	55	foodImage.93	FOODEEG_Images\0901.jpg	YN	Right	No	1.0325193000026	0	613168	252
1199.65625	1.0325193000026	decision	choicePhaseStart	3	175	55	foodImage.93	FOODEEG_Images\0901.jpg	YN	Right	No	1.0325193000026	0	614225	253
1200.6796875	0	decision	response	3	175	55	foodImage.93	FOODEEG_Images\0901.jpg	YN	Right	No	1.0325193000026	0	614749	235
1201.728515625	1	taste	trialStart	3	176	56	foodImage.14	FOODEEG_Images\0188.jpg	NY	Right	Yes	0.952862299978733	0	615286	251
1202.7890625	2	taste	foodImageDisplay	3	176	56	foodImage.14	FOODEEG_Images\0188.jpg	NY	Right	Yes	0.952862299978733	0	615829	252
1204.85546875	0.952862299978733	taste	choicePhaseStart	3	176	56	foodImage.14	FOODEEG_Images\0188.jpg	NY	Right	Yes	0.952862299978733	0	616887	253
1205.798828125	0	taste	response	3	176	56	foodImage.14	FOODEEG_Images\0188.jpg	NY	Right	Yes	0.952862299978733	0	617370	235
1206.84765625	1	taste	trialStart	3	177	57	foodImage.34	FOODEEG_Images\0339.jpg	YN	Right	No	1.09175470005721	0	617907	251
1207.908203125	2	taste	foodImageDisplay	3	177	57	foodImage.34	FOODEEG_Images\0339.jpg	YN	Right	No	1.09175470005721	0	618450	252
1209.97265625	1.09175470005721	taste	choicePhaseStart	3	177	57	foodImage.34	FOODEEG_Images\0339.jpg	YN	Right	No	1.09175470005721	0	619507	253
1211.0546875	0	taste	response	3	177	57	foodImage.34	FOODEEG_Images\0339.jpg	YN	Right	No	1.09175470005721	0	620061	235
1212.09765625	1	health	trialStart	3	178	58	foodImage.54	FOODEEG_Images\0560.jpg	NY	Left	No	1.12845159997232	0	620595	251
1213.15234375	2	health	foodImageDisplay	3	178	58	foodImage.54	FOODEEG_Images\0560.jpg	NY	Left	No	1.12845159997232	0	621135	252
1215.21484375	1.12845159997232	health	choicePhaseStart	3	178	58	foodImage.54	FOODEEG_Images\0560.jpg	NY	Left	No	1.12845159997232	0	622191	253
1216.333984375	0	health	response	3	178	58	foodImage.54	FOODEEG_Images\0560.jpg	NY	Left	No	1.12845159997232	0	622764	234
1217.376953125	1	taste	trialStart	3	179	59	foodImage.22	FOODEEG_Images\0236.jpg	YN	Left	Yes	1.2052102999296	0	623298	251
1218.41796875	2	taste	foodImageDisplay	3	179	59	foodImage.22	FOODEEG_Images\0236.jpg	YN	Left	Yes	1.2052102999296	0	623831	252
1220.482421875	1.2052102999296	taste	choicePhaseStart	3	179	59	foodImage.22	FOODEEG_Images\0236.jpg	YN	Left	Yes	1.2052102999296	0	624888	253
1221.677734375	0	taste	response	3	179	59	foodImage.22	FOODEEG_Images\0236.jpg	YN	Left	Yes	1.2052102999296	0	625500	234
1222.720703125	1	decision	trialStart	3	180	60	foodImage.47	FOODEEG_Images\0488.jpg	NY	Right	Yes	1.17271149996668	0	626034	251
1223.763671875	2	decision	foodImageDisplay	3	180	60	foodImage.47	FOODEEG_Images\0488.jpg	NY	Right	Yes	1.17271149996668	0	626568	252
1225.826171875	1.17271149996668	decision	choicePhaseStart	3	180	60	foodImage.47	FOODEEG_Images\0488.jpg	NY	Right	Yes	1.17271149996668	0	627624	253
1226.990234375	0	decision	response	3	180	60	foodImage.47	FOODEEG_Images\0488.jpg	NY	Right	Yes	1.17271149996668	0	628220	235
1229.03125	4.6796875	n/a	blockEnd	n/a	n/a	n/a	n/a	n/a	n/a	n/a	n/a	n/a	n/a	629265	254
1233.7109375	2	n/a	blockStart	4	n/a	n/a	n/a	n/a	n/a	n/a	n/a	n/a	n/a	631661	250
1235.7421875	1	taste	trialStart	4	181	1	foodImage.84	FOODEEG_Images\0830.jpg	YN	Left	Yes	1.16032809996977	0	632701	251
1236.822265625	2	taste	foodImageDisplay	4	181	1	foodImage.84	FOODEEG_Images\0830.jpg	YN	Left	Yes	1.16032809996977	0	633254	252
1238.884765625	1.16032809996977	taste	choicePhaseStart	4	181	1	foodImage.84	FOODEEG_Images\0830.jpg	YN	Left	Yes	1.16032809996977	0	634310	253
1240.037109375	0	taste	response	4	181	1	foodImage.84	FOODEEG_Images\0830.jpg	YN	Left	Yes	1.16032809996977	0	634900	234
1241.083984375	1	taste	trialStart	4	182	2	foodImage.50	FOODEEG_Images\0529.jpg	YN	Left	Yes	0.84842579998076	0	635436	251
1242.142578125	2	taste	foodImageDisplay	4	182	2	foodImage.50	FOODEEG_Images\0529.jpg	YN	Left	Yes	0.84842579998076	0	635978	252
1244.205078125	0.84842579998076	taste	choicePhaseStart	4	182	2	foodImage.50	FOODEEG_Images\0529.jpg	YN	Left	Yes	0.84842579998076	0	637034	253
1245.044921875	0	taste	response	4	182	2	foodImage.50	FOODEEG_Images\0529.jpg	YN	Left	Yes	0.84842579998076	0	637464	234
1246.087890625	1	health	trialStart	4	183	3	foodImage.43	FOODEEG_Images\0445.jpg	YN	Left	Yes	0.877306999987923	0	637998	251
1247.146484375	2	health	foodImageDisplay	4	183	3	foodImage.43	FOODEEG_Images\0445.jpg	YN	Left	Yes	0.877306999987923	0	638540	252
1249.208984375	0.877306999987923	health	choicePhaseStart	4	183	3	foodImage.43	FOODEEG_Images\0445.jpg	YN	Left	Yes	0.877306999987923	0	639596	253
1250.076171875	0	health	response	4	183	3	foodImage.43	FOODEEG_Images\0445.jpg	YN	Left	Yes	0.877306999987923	0	640040	234
1251.119140625	1	decision	trialStart	4	184	4	foodImage.51	FOODEEG_Images\0536.jpg	NY	Right	Yes	0.923985800007358	0	640574	251
1252.169921875	2	decision	foodImageDisplay	4	184	4	foodImage.51	FOODEEG_Images\0536.jpg	NY	Right	Yes	0.923985800007358	0	641112	252
1254.234375	0.923985800007358	decision	choicePhaseStart	4	184	4	foodImage.51	FOODEEG_Images\0536.jpg	NY	Right	Yes	0.923985800007358	0	642169	253
1255.1484375	0	decision	response	4	184	4	foodImage.51	FOODEEG_Images\0536.jpg	NY	Right	Yes	0.923985800007358	0	642637	235
1256.19140625	1	health	trialStart	4	185	5	foodImage.40	FOODEEG_Images\0373.jpg	NY	Left	No	1.38276690000203	0	643171	251
1257.232421875	2	health	foodImageDisplay	4	185	5	foodImage.40	FOODEEG_Images\0373.jpg	NY	Left	No	1.38276690000203	0	643704	252
1259.30078125	1.38276690000203	health	choicePhaseStart	4	185	5	foodImage.40	FOODEEG_Images\0373.jpg	NY	Left	No	1.38276690000203	0	644763	253
1260.67578125	0	health	response	4	185	5	foodImage.40	FOODEEG_Images\0373.jpg	NY	Left	No	1.38276690000203	0	645467	234
1261.71875	1	health	trialStart	4	186	6	foodImage.21	FOODEEG_Images\0234.jpg	YN	Left	Yes	1.6279618999688	0	646001	251
1262.77734375	2	health	foodImageDisplay	4	186	6	foodImage.21	FOODEEG_Images\0234.jpg	YN	Left	Yes	1.6279618999688	0	646543	252
1264.841796875	1.6279618999688	health	choicePhaseStart	4	186	6	foodImage.21	FOODEEG_Images\0234.jpg	YN	Left	Yes	1.6279618999688	0	647600	253
1266.4609375	0	health	response	4	186	6	foodImage.21	FOODEEG_Images\0234.jpg	YN	Left	Yes	1.6279618999688	0	648429	234
1267.5	1	health	trialStart	4	187	7	foodImage.98	FOODEEG_Images\0906.jpg	NY	Left	No	1.21091070002876	0	648961	251
1268.5390625	2	health	foodImageDisplay	4	187	7	foodImage.98	FOODEEG_Images\0906.jpg	NY	Left	No	1.21091070002876	0	649493	252
1270.6015625	1.21091070002876	health	choicePhaseStart	4	187	7	foodImage.98	FOODEEG_Images\0906.jpg	NY	Left	No	1.21091070002876	0	650549	253
1271.8046875	0	health	response	4	187	7	foodImage.98	FOODEEG_Images\0906.jpg	NY	Left	No	1.21091070002876	0	651165	234
1272.84375	1	health	trialStart	4	188	8	foodImage.9	FOODEEG_Images\0138.jpg	YN	Right	No	1.12882220000029	0	651697	251
1273.8984375	2	health	foodImageDisplay	4	188	8	foodImage.9	FOODEEG_Images\0138.jpg	YN	Right	No	1.12882220000029	0	652237	252
1275.962890625	1.12882220000029	health	choicePhaseStart	4	188	8	foodImage.9	FOODEEG_Images\0138.jpg	YN	Right	No	1.12882220000029	0	653294	253
1277.083984375	0	health	response	4	188	8	foodImage.9	FOODEEG_Images\0138.jpg	YN	Right	No	1.12882220000029	0	653868	235
1278.12890625	1	decision	trialStart	4	189	9	foodImage.37	FOODEEG_Images\0359.jpg	NY	Right	Yes	1.41683430003468	0	654403	251
1279.171875	2	decision	foodImageDisplay	4	189	9	foodImage.37	FOODEEG_Images\0359.jpg	NY	Right	Yes	1.41683430003468	0	654937	252
1281.236328125	1.41683430003468	decision	choicePhaseStart	4	189	9	foodImage.37	FOODEEG_Images\0359.jpg	NY	Right	Yes	1.41683430003468	0	655994	253
1282.642578125	0	decision	response	4	189	9	foodImage.37	FOODEEG_Images\0359.jpg	NY	Right	Yes	1.41683430003468	0	656714	235
1283.6953125	1	decision	trialStart	4	190	10	foodImage.53	FOODEEG_Images\0547.jpg	NY	Left	No	1.64437720004935	0	657253	251
1284.75390625	2	decision	foodImageDisplay	4	190	10	foodImage.53	FOODEEG_Images\0547.jpg	NY	Left	No	1.64437720004935	0	657795	252
1286.81640625	1.64437720004935	decision	choicePhaseStart	4	190	10	foodImage.53	FOODEEG_Images\0547.jpg	NY	Left	No	1.64437720004935	0	658851	253
1288.451171875	0	decision	response	4	190	10	foodImage.53	FOODEEG_Images\0547.jpg	NY	Left	No	1.64437720004935	0	659688	234
1289.498046875	1	health	trialStart	4	191	11	foodImage.71	FOODEEG_Images\0713.jpg	YN	Right	No	0.943594399956055	0	660224	251
1290.541015625	2	health	foodImageDisplay	4	191	11	foodImage.71	FOODEEG_Images\0713.jpg	YN	Right	No	0.943594399956055	0	660758	252
1292.60546875	0.943594399956055	health	choicePhaseStart	4	191	11	foodImage.71	FOODEEG_Images\0713.jpg	YN	Right	No	0.943594399956055	0	661815	253
1293.5390625	0	health	response	4	191	11	foodImage.71	FOODEEG_Images\0713.jpg	YN	Right	No	0.943594399956055	0	662293	235
1294.58203125	1	taste	trialStart	4	192	12	foodImage.41	FOODEEG_Images\0409.jpg	YN	Left	Yes	1.12776509998366	0	662827	251
1295.62890625	2	taste	foodImageDisplay	4	192	12	foodImage.41	FOODEEG_Images\0409.jpg	YN	Left	Yes	1.12776509998366	0	663363	252
1297.693359375	1.12776509998366	taste	choicePhaseStart	4	192	12	foodImage.41	FOODEEG_Images\0409.jpg	YN	Left	Yes	1.12776509998366	0	664420	253
1298.810546875	0	taste	response	4	192	12	foodImage.41	FOODEEG_Images\0409.jpg	YN	Left	Yes	1.12776509998366	0	664992	234
1299.85546875	1	health	trialStart	4	193	13	foodImage.32	FOODEEG_Images\0319.jpg	NY	Left	No	1.36058990005404	0	665527	251
1300.900390625	2	health	foodImageDisplay	4	193	13	foodImage.32	FOODEEG_Images\0319.jpg	NY	Left	No	1.36058990005404	0	666062	252
