onset	duration	trial_type	event_type	block	trial_total	trial_in_block	food_image_code	food_image_path	button_position	resp_position	resp_choice	choice_rt	resp_too_slow	sample	trigger
348.107421875	2	n/a	blockStart	1	n/a	n/a	n/a	n/a	n/a	n/a	n/a	n/a	n/a	178232	250
350.14453125	1	health	trialStart	1	1	1	foodImage.95	FOODEEG_Images\0903.jpg	NY	Left	No	1.57611219998216	0	179275	251
351.19140625	2	health	foodImageDisplay	1	1	1	foodImage.95	FOODEEG_Images\0903.jpg	NY	Left	No	1.57611219998216	0	179811	252
353.2578125	1.57611219998216	health	choicePhaseStart	1	1	1	foodImage.95	FOODEEG_Images\0903.jpg	NY	Left	No	1.57611219998216	0	180869	253
354.830078125	0	health	response	1	1	1	foodImage.95	FOODEEG_Images\0903.jpg	NY	Left	No	1.57611219998216	0	181674	234
355.939453125	1	taste	trialStart	1	2	2	foodImage.49	FOODEEG_Images\0515.jpg	YN	Left	Yes	1.6341659000027	0	182242	251
356.98046875	2	taste	foodImageDisplay	1	2	2	foodImage.49	FOODEEG_Images\0515.jpg	YN	Left	Yes	1.6341659000027	0	182775	252
359.044921875	1.6341659000027	taste	choicePhaseStart	1	2	2	foodImage.49	FOODEEG_Images\0515.jpg	YN	Left	Yes	1.6341659000027	0	183832	253
360.669921875	0	taste	response	1	2	2	foodImage.49	FOODEEG_Images\0515.jpg	YN	Left	Yes	1.6341659000027	0	184664	234
361.7265625	1	taste	trialStart	1	3	3	foodImage.21	FOODEEG_Images\0234.jpg	YN	Left	Yes	0.79349280000315	0	185205	251
362.7890625	2	taste	foodImageDisplay	1	3	3	foodImage.21	FOODEEG_Images\0234.jpg	YN	Left	Yes	0.79349280000315	0	185749	252
364.8515625	0.79349280000315	taste	choicePhaseStart	1	3	3	foodImage.21	FOODEEG_Images\0234.jpg	YN	Left	Yes	0.79349280000315	0	186805	253
365.63671875	0	taste	response	1	3	3	foodImage.21	FOODEEG_Images\0234.jpg	YN	Left	Yes	0.79349280000315	0	187207	234
366.6796875	1	taste	trialStart	1	4	4	foodImage.95	FOODEEG_Images\0903.jpg	NY	Left	No	0.893490999995265	0	187741	251
367.71875	2	taste	foodImageDisplay	1	4	4	foodImage.95	FOODEEG_Images\0903.jpg	NY	Left	No	0.893490999995265	0	188273	252
369.783203125	0.893490999995265	taste	choicePhaseStart	1	4	4	foodImage.95	FOODEEG_Images\0903.jpg	NY	Left	No	0.893490999995265	0	189330	253
370.66796875	0	taste	response	1	4	4	foodImage.95	FOODEEG_Images\0903.jpg	NY	Left	No	0.893490999995265	0	189783	234
371.71484375	1	health	trialStart	1	5	5	foodImage.73	FOODEEG_Images\0717.jpg	NY	Left	No	1.93649049999658	0	190319	251
372.77734375	2	health	foodImageDisplay	1	5	5	foodImage.73	FOODEEG_Images\0717.jpg	NY	Left	No	1.93649049999658	0	190863	252
374.84375	1.93649049999658	health	choicePhaseStart	1	5	5	foodImage.73	FOODEEG_Images\0717.jpg	NY	Left	No	1.93649049999658	0	191921	253
376.7734375	0	health	response	1	5	5	foodImage.73	FOODEEG_Images\0717.jpg	NY	Left	No	1.93649049999658	0	192909	234
377.826171875	1	taste	trialStart	1	6	6	foodImage.57	FOODEEG_Images\0587.jpg	NY	Right	Yes	0.879058699996676	0	193448	251
378.869140625	2	taste	foodImageDisplay	1	6	6	foodImage.57	FOODEEG_Images\0587.jpg	NY	Right	Yes	0.879058699996676	0	193982	252
380.93359375	0.879058699996676	taste	choicePhaseStart	1	6	6	foodImage.57	FOODEEG_Images\0587.jpg	NY	Right	Yes	0.879058699996676	0	195039	253
381.8046875	0	taste	response	1	6	6	foodImage.57	FOODEEG_Images\0587.jpg	NY	Right	Yes	0.879058699996676	0	195485	235
382.853515625	1	decision	trialStart	1	7	7	foodImage.52	FOODEEG_Images\0539.jpg	YN	Left	Yes	1.07849220000207	0	196022	251
383.9140625	2	decision	foodImageDisplay	1	7	7	foodImage.52	FOODEEG_Images\0539.jpg	YN	Left	Yes	1.07849220000207	0	196565	252
385.978515625	1.07849220000207	decision	choicePhaseStart	1	7	7	foodImage.52	FOODEEG_Images\0539.jpg	YN	Left	Yes	1.07849220000207	0	197622	253
387.052734375	0	decision	response	1	7	7	foodImage.52	FOODEEG_Images\0539.jpg	YN	Left	Yes	1.07849220000207	0	198172	234
388.09375	1	health	trialStart	1	8	8	foodImage.57	FOODEEG_Images\0587.jpg	NY	Left	No	0.921533799992176	0	198705	251
389.13671875	2	health	foodImageDisplay	1	8	8	foodImage.57	FOODEEG_Images\0587.jpg	NY	Left	No	0.921533799992176	0	199239	252
391.201171875	0.921533799992176	health	choicePhaseStart	1	8	8	foodImage.57	FOODEEG_Images\0587.jpg	NY	Left	No	0.921533799992176	0	200296	253
392.115234375	0	health	response	1	8	8	foodImage.57	FOODEEG_Images\0587.jpg	NY	Left	No	0.921533799992176	0	200764	234
393.158203125	1	decision	trialStart	1	9	9	foodImage.19	FOODEEG_Images\0225.jpg	YN	Right	No	1.13683289999608	0	201298	251
394.203125	2	decision	foodImageDisplay	1	9	9	foodImage.19	FOODEEG_Images\0225.jpg	YN	Right	No	1.13683289999608	0	201833	252
396.265625	1.13683289999608	decision	choicePhaseStart	1	9	9	foodImage.19	FOODEEG_Images\0225.jpg	YN	Right	No	1.13683289999608	0	202889	253
397.396484375	0	decision	response	1	9	9	foodImage.19	FOODEEG_Images\0225.jpg	YN	Right	No	1.13683289999608	0	203468	235
398.44140625	1	decision	trialStart	1	10	10	foodImage.112	FOODEEG_Images\0920.jpg	NY	Left	No	0.815858499991009	0	204003	251
399.484375	2	decision	foodImageDisplay	1	10	10	foodImage.112	FOODEEG_Images\0920.jpg	NY	Left	No	0.815858499991009	0	204537	252
401.548828125	0.815858499991009	decision	choicePhaseStart	1	10	10	foodImage.112	FOODEEG_Images\0920.jpg	NY	Left	No	0.815858499991009	0	205594	253
402.35546875	0	decision	response	1	10	10	foodImage.112	FOODEEG_Images\0920.jpg	NY	Left	No	0.815858499991009	0	206007	234
403.3984375	1	health	trialStart	1	11	11	foodImage.85	FOODEEG_Images\0841.jpg	YN	Right	No	1.28884190000826	0	206541	251
404.45703125	2	health	foodImageDisplay	1	11	11	foodImage.85	FOODEEG_Images\0841.jpg	YN	Right	No	1.28884190000826	0	207083	252
406.521484375	1.28884190000826	health	choicePhaseStart	1	11	11	foodImage.85	FOODEEG_Images\0841.jpg	YN	Right	No	1.28884190000826	0	208140	253
407.802734375	0	health	response	1	11	11	foodImage.85	FOODEEG_Images\0841.jpg	YN	Right	No	1.28884190000826	0	208796	235
408.845703125	1	health	trialStart	1	12	12	foodImage.43	FOODEEG_Images\0445.jpg	NY	Right	Yes	2.20951680000871	0	209330	251
409.904296875	2	health	foodImageDisplay	1	12	12	foodImage.43	FOODEEG_Images\0445.jpg	NY	Right	Yes	2.20951680000871	0	209872	252
411.96875	2.20951680000871	health	choicePhaseStart	1	12	12	foodImage.43	FOODEEG_Images\0445.jpg	NY	Right	Yes	2.20951680000871	0	210929	253
414.171875	0	health	response	1	12	12	foodImage.43	FOODEEG_Images\0445.jpg	NY	Right	Yes	2.20951680000871	0	212057	235
415.21484375	1	health	trialStart	1	13	13	foodImage.74	FOODEEG_Images\0752.jpg	YN	Left	Yes	0.799448200006736	0	212591	251
416.259765625	2	health	foodImageDisplay	1	13	13	foodImage.74	FOODEEG_Images\0752.jpg	YN	Left	Yes	0.799448200006736	0	213126	252
418.32421875	0.799448200006736	health	choicePhaseStart	1	13	13	foodImage.74	FOODEEG_Images\0752.jpg	YN	Left	Yes	0.799448200006736	0	214183	253
419.115234375	0	health	response	1	13	13	foodImage.74	FOODEEG_Images\0752.jpg	YN	Left	Yes	0.799448200006736	0	214588	234
420.162109375	1	health	trialStart	1	14	14	foodImage.36	FOODEEG_Images\0352.jpg	NY	Right	Yes	0.86221740001929	0	215124	251
421.220703125	2	health	foodImageDisplay	1	14	14	foodImage.36	FOODEEG_Images\0352.jpg	NY	Right	Yes	0.86221740001929	0	215666	252
423.28515625	0.86221740001929	health	choicePhaseStart	1	14	14	foodImage.36	FOODEEG_Images\0352.jpg	NY	Right	Yes	0.86221740001929	0	216723	253
424.138671875	0	health	response	1	14	14	foodImage.36	FOODEEG_Images\0352.jpg	NY	Right	Yes	0.86221740001929	0	217160	235
425.18359375	1	health	trialStart	1	15	15	foodImage.87	FOODEEG_Images\0873.jpg	NY	Right	Yes	1.47123439999996	0	217695	251
426.244140625	2	health	foodImageDisplay	1	15	15	foodImage.87	FOODEEG_Images\0873.jpg	NY	Right	Yes	1.47123439999996	0	218238	252
428.30859375	1.47123439999996	health	choicePhaseStart	1	15	15	foodImage.87	FOODEEG_Images\0873.jpg	NY	Right	Yes	1.47123439999996	0	219295	253
429.76953125	0	health	response	1	15	15	foodImage.87	FOODEEG_Images\0873.jpg	NY	Right	Yes	1.47123439999996	0	220043	235
430.814453125	1	taste	trialStart	1	16	16	foodImage.15	FOODEEG_Images\0189.jpg	NY	Right	Yes	0.947372800001176	0	220578	251
431.873046875	2	taste	foodImageDisplay	1	16	16	foodImage.15	FOODEEG_Images\0189.jpg	NY	Right	Yes	0.947372800001176	0	221120	252
433.935546875	0.947372800001176	taste	choicePhaseStart	1	16	16	foodImage.15	FOODEEG_Images\0189.jpg	NY	Right	Yes	0.947372800001176	0	222176	253
434.875	0	taste	response	1	16	16	foodImage.15	FOODEEG_Images\0189.jpg	NY	Right	Yes	0.947372800001176	0	222657	235
435.916015625	1	health	trialStart	1	17	17	foodImage.70	FOODEEG_Images\0705.jpg	NY	Left	No	1.00264859999879	0	223190	251
436.974609375	2	health	foodImageDisplay	1	17	17	foodImage.70	FOODEEG_Images\0705.jpg	NY	Left	No	1.00264859999879	0	223732	252
439.041015625	1.00264859999879	health	choicePhaseStart	1	17	17	foodImage.70	FOODEEG_Images\0705.jpg	NY	Left	No	1.00264859999879	0	224790	253
440.033203125	0	health	response	1	17	17	foodImage.70	FOODEEG_Images\0705.jpg	NY	Left	No	1.00264859999879	0	225298	234
441.076171875	1	taste	trialStart	1	18	18	foodImage.52	FOODEEG_Images\0539.jpg	NY	Right	Yes	1.16271730000153	0	225832	251
442.1328125	2	taste	foodImageDisplay	1	18	18	foodImage.52	FOODEEG_Images\0539.jpg	NY	Right	Yes	1.16271730000153	0	226373	252
444.19921875	1.16271730000153	taste	choicePhaseStart	1	18	18	foodImage.52	FOODEEG_Images\0539.jpg	NY	Right	Yes	1.16271730000153	0	227431	253
445.353515625	0	taste	response	1	18	18	foodImage.52	FOODEEG_Images\0539.jpg	NY	Right	Yes	1.16271730000153	0	228022	235
446.39453125	1	decision	trialStart	1	19	19	foodImage.59	FOODEEG_Images\0607.jpg	NY	Right	Yes	0.990257299999939	0	228555	251
447.44140625	2	decision	foodImageDisplay	1	19	19	foodImage.59	FOODEEG_Images\0607.jpg	NY	Right	Yes	0.990257299999939	0	229091	252
449.505859375	0.990257299999939	decision	choicePhaseStart	1	19	19	foodImage.59	FOODEEG_Images\0607.jpg	NY	Right	Yes	0.990257299999939	0	230148	253
450.490234375	0	decision	response	1	19	19	foodImage.59	FOODEEG_Images\0607.jpg	NY	Right	Yes	0.990257299999939	0	230652	235
451.5390625	1	taste	trialStart	1	20	20	foodImage.104	FOODEEG_Images\0912.jpg	NY	Right	Yes	0.839552599994931	0	231189	251
452.580078125	2	taste	foodImageDisplay	1	20	20	foodImage.104	FOODEEG_Images\0912.jpg	NY	Right	Yes	0.839552599994931	0	231722	252
454.642578125	0.839552599994931	taste	choicePhaseStart	1	20	20	foodImage.104	FOODEEG_Images\0912.jpg	NY	Right	Yes	0.839552599994931	0	232778	253
455.47265625	0	taste	response	1	20	20	foodImage.104	FOODEEG_Images\0912.jpg	NY	Right	Yes	0.839552599994931	0	233203	235
456.517578125	1	taste	trialStart	1	21	21	foodImage.4	FOODEEG_Images\0065.jpg	YN	Left	Yes	0.81691029999638	0	233738	251
457.578125	2	taste	foodImageDisplay	1	21	21	foodImage.4	FOODEEG_Images\0065.jpg	YN	Left	Yes	0.81691029999638	0	234281	252
459.640625	0.81691029999638	taste	choicePhaseStart	1	21	21	foodImage.4	FOODEEG_Images\0065.jpg	YN	Left	Yes	0.81691029999638	0	235337	253
460.44921875	0	taste	response	1	21	21	foodImage.4	FOODEEG_Images\0065.jpg	YN	Left	Yes	0.81691029999638	0	235751	234
461.4921875	1	health	trialStart	1	22	22	foodImage.50	FOODEEG_Images\0529.jpg	NY	Right	Yes	0.977490400022361	0	236285	251
462.552734375	2	health	foodImageDisplay	1	22	22	foodImage.50	FOODEEG_Images\0529.jpg	NY	Right	Yes	0.977490400022361	0	236828	252
464.6171875	0.977490400022361	health	choicePhaseStart	1	22	22	foodImage.50	FOODEEG_Images\0529.jpg	NY	Right	Yes	0.977490400022361	0	237885	253
465.583984375	0	health	response	1	22	22	foodImage.50	FOODEEG_Images\0529.jpg	NY	Right	Yes	0.977490400022361	0	238380	235
466.62890625	1	taste	trialStart	1	23	23	foodImage.1	FOODEEG_Images\0004.jpg	NY	Right	Yes	1.20295690000057	0	238915	251
467.671875	2	taste	foodImageDisplay	1	23	23	foodImage.1	FOODEEG_Images\0004.jpg	NY	Right	Yes	1.20295690000057	0	239449	252
469.736328125	1.20295690000057	taste	choicePhaseStart	1	23	23	foodImage.1	FOODEEG_Images\0004.jpg	NY	Right	Yes	1.20295690000057	0	240506	253
470.927734375	0	taste	response	1	23	23	foodImage.1	FOODEEG_Images\0004.jpg	NY	Right	Yes	1.20295690000057	0	241116	235
471.970703125	1	decision	trialStart	1	24	24	foodImage.69	FOODEEG_Images\0693.jpg	NY	Right	Yes	0.833723799994914	0	241650	251
473.013671875	2	decision	foodImageDisplay	1	24	24	foodImage.69	FOODEEG_Images\0693.jpg	NY	Right	Yes	0.833723799994914	0	242184	252
475.080078125	0.833723799994914	decision	choicePhaseStart	1	24	24	foodImage.69	FOODEEG_Images\0693.jpg	NY	Right	Yes	0.833723799994914	0	243242	253
475.904296875	0	decision	response	1	24	24	foodImage.69	FOODEEG_Images\0693.jpg	NY	Right	Yes	0.833723799994914	0	243664	235
476.958984375	1	taste	trialStart	1	25	25	foodImage.56	FOODEEG_Images\0586.jpg	NY	Left	No	1.58380500000203	0	244204	251
478.001953125	2	taste	foodImageDisplay	1	25	25	foodImage.56	FOODEEG_Images\0586.jpg	NY	Left	No	1.58380500000203	0	244738	252
480.06640625	1.58380500000203	taste	choicePhaseStart	1	25	25	foodImage.56	FOODEEG_Images\0586.jpg	NY	Left	No	1.58380500000203	0	245795	253
481.640625	0	taste	response	1	25	25	foodImage.56	FOODEEG_Images\0586.jpg	NY	Left	No	1.58380500000203	0	246601	234
482.68359375	1	decision	trialStart	1	26	26	foodImage.118	FOODEEG_Images\0926.jpg	NY	Left	No	0.951609199983068	0	247135	251
483.720703125	2	decision	foodImageDisplay	1	26	26	foodImage.118	FOODEEG_Images\0926.jpg	NY	Left	No	0.951609199983068	0	247666	252
485.78515625	0.951609199983068	decision	choicePhaseStart	1	26	26	foodImage.118	FOODEEG_Images\0926.jpg	NY	Left	No	0.951609199983068	0	248723	253
486.728515625	0	decision	response	1	26	26	foodImage.118	FOODEEG_Images\0926.jpg	NY	Left	No	0.951609199983068	0	249206	234
487.771484375	1	decision	trialStart	1	27	27	foodImage.70	FOODEEG_Images\0705.jpg	YN	Left	Yes	0.645921100018313	0	249740	251
488.828125	2	decision	foodImageDisplay	1	27	27	foodImage.70	FOODEEG_Images\0705.jpg	YN	Left	Yes	0.645921100018313	0	250281	252
490.892578125	0.645921100018313	decision	choicePhaseStart	1	27	27	foodImage.70	FOODEEG_Images\0705.jpg	YN	Left	Yes	0.645921100018313	0	251338	253
491.52734375	0	decision	response	1	27	27	foodImage.70	FOODEEG_Images\0705.jpg	YN	Left	Yes	0.645921100018313	0	251663	234
492.5703125	1	health	trialStart	1	28	28	foodImage.90	FOODEEG_Images\0890.jpg	NY	Right	Yes	1.62984789998154	0	252197	251
493.62890625	2	health	foodImageDisplay	1	28	28	foodImage.90	FOODEEG_Images\0890.jpg	NY	Right	Yes	1.62984789998154	0	252739	252
495.69140625	1.62984789998154	health	choicePhaseStart	1	28	28	foodImage.90	FOODEEG_Images\0890.jpg	NY	Right	Yes	1.62984789998154	0	253795	253
497.3125	0	health	response	1	28	28	foodImage.90	FOODEEG_Images\0890.jpg	NY	Right	Yes	1.62984789998154	0	254625	235
498.359375	1	health	trialStart	1	29	29	foodImage.109	FOODEEG_Images\0917.jpg	YN	Right	No	1.08367510000244	0	255161	251
499.3984375	2	health	foodImageDisplay	1	29	29	foodImage.109	FOODEEG_Images\0917.jpg	YN	Right	No	1.08367510000244	0	255693	252
501.4609375	1.08367510000244	health	choicePhaseStart	1	29	29	foodImage.109	FOODEEG_Images\0917.jpg	YN	Right	No	1.08367510000244	0	256749	253
502.53515625	0	health	response	1	29	29	foodImage.109	FOODEEG_Images\0917.jpg	YN	Right	No	1.08367510000244	0	257299	235
503.5859375	1	taste	trialStart	1	30	30	foodImage.51	FOODEEG_Images\0536.jpg	NY	Right	Yes	1.33617399999639	0	257837	251
504.6328125	2	taste	foodImageDisplay	1	30	30	foodImage.51	FOODEEG_Images\0536.jpg	NY	Right	Yes	1.33617399999639	0	258373	252
506.697265625	1.33617399999639	taste	choicePhaseStart	1	30	30	foodImage.51	FOODEEG_Images\0536.jpg	NY	Right	Yes	1.33617399999639	0	259430	253
508.0234375	0	taste	response	1	30	30	foodImage.51	FOODEEG_Images\0536.jpg	NY	Right	Yes	1.33617399999639	0	260109	235
509.068359375	1	decision	trialStart	1	31	31	foodImage.28	FOODEEG_Images\0273.jpg	YN	Left	Yes	1.42731969998567	0	260644	251
510.111328125	2	decision	foodImageDisplay	1	31	31	foodImage.28	FOODEEG_Images\0273.jpg	YN	Left	Yes	1.42731969998567	0	261178	252
512.173828125	1.42731969998567	decision	choicePhaseStart	1	31	31	foodImage.28	FOODEEG_Images\0273.jpg	YN	Left	Yes	1.42731969998567	0	262234	253
513.591796875	0	decision	response	1	31	31	foodImage.28	FOODEEG_Images\0273.jpg	YN	Left	Yes	1.42731969998567	0	262960	234
514.638671875	1	decision	trialStart	1	32	32	foodImage.54	FOODEEG_Images\0560.jpg	NY	Right	Yes	1.07783749999362	0	263496	251
515.697265625	2	decision	foodImageDisplay	1	32	32	foodImage.54	FOODEEG_Images\0560.jpg	NY	Right	Yes	1.07783749999362	0	264038	252
517.76171875	1.07783749999362	decision	choicePhaseStart	1	32	32	foodImage.54	FOODEEG_Images\0560.jpg	NY	Right	Yes	1.07783749999362	0	265095	253
518.830078125	0	decision	response	1	32	32	foodImage.54	FOODEEG_Images\0560.jpg	NY	Right	Yes	1.07783749999362	0	265642	235
519.875	1	health	trialStart	1	33	33	foodImage.45	FOODEEG_Images\0478.jpg	YN	Left	Yes	1.05204220002634	0	266177	251
520.921875	2	health	foodImageDisplay	1	33	33	foodImage.45	FOODEEG_Images\0478.jpg	YN	Left	Yes	1.05204220002634	0	266713	252
522.984375	1.05204220002634	health	choicePhaseStart	1	33	33	foodImage.45	FOODEEG_Images\0478.jpg	YN	Left	Yes	1.05204220002634	0	267769	253
524.03125	0	health	response	1	33	33	foodImage.45	FOODEEG_Images\0478.jpg	YN	Left	Yes	1.05204220002634	0	268305	234
525.072265625	1	decision	trialStart	1	34	34	foodImage.21	FOODEEG_Images\0234.jpg	YN	Left	Yes	0.850368799990974	0	268838	251
526.1328125	2	decision	foodImageDisplay	1	34	34	foodImage.21	FOODEEG_Images\0234.jpg	YN	Left	Yes	0.850368799990974	0	269381	252
528.197265625	0.850368799990974	decision	choicePhaseStart	1	34	34	foodImage.21	FOODEEG_Images\0234.jpg	YN	Left	Yes	0.850368799990974	0	270438	253
529.0390625	0	decision	response	1	34	34	foodImage.21	FOODEEG_Images\0234.jpg	YN	Left	Yes	0.850368799990974	0	270869	234
530.08203125	1	health	trialStart	1	35	35	foodImage.28	FOODEEG_Images\0273.jpg	NY	Right	Yes	0.881831100006821	0	271403	251
531.123046875	2	health	foodImageDisplay	1	35	35	foodImage.28	FOODEEG_Images\0273.jpg	NY	Right	Yes	0.881831100006821	0	271936	252
533.1875	0.881831100006821	health	choicePhaseStart	1	35	35	foodImage.28	FOODEEG_Images\0273.jpg	NY	Right	Yes	0.881831100006821	0	272993	253
534.0625	0	health	response	1	35	35	foodImage.28	FOODEEG_Images\0273.jpg	NY	Right	Yes	0.881831100006821	0	273441	235
535.10546875	1	decision	trialStart	1	36	36	foodImage.66	FOODEEG_Images\0676.jpg	YN	Left	Yes	0.946907200006535	0	273975	251
536.1484375	2	decision	foodImageDisplay	1	36	36	foodImage.66	FOODEEG_Images\0676.jpg	YN	Left	Yes	0.946907200006535	0	274509	252
538.212890625	0.946907200006535	decision	choicePhaseStart	1	36	36	foodImage.66	FOODEEG_Images\0676.jpg	YN	Left	Yes	0.946907200006535	0	275566	253
539.150390625	0	decision	response	1	36	36	foodImage.66	FOODEEG_Images\0676.jpg	YN	Left	Yes	0.946907200006535	0	276046	234
540.193359375	1	health	trialStart	1	37	37	foodImage.31	FOODEEG_Images\0294.jpg	YN	Right	No	0.998945600003935	0	276580	251
541.236328125	2	health	foodImageDisplay	1	37	37	foodImage.31	FOODEEG_Images\0294.jpg	YN	Right	No	0.998945600003935	0	277114	252
543.30078125	0.998945600003935	health	choicePhaseStart	1	37	37	foodImage.31	FOODEEG_Images\0294.jpg	YN	Right	No	0.998945600003935	0	278171	253
544.29296875	0	health	response	1	37	37	foodImage.31	FOODEEG_Images\0294.jpg	YN	Right	No	0.998945600003935	0	278679	235
545.3359375	1	taste	trialStart	1	38	38	foodImage.64	FOODEEG_Images\0647.jpg	NY	Left	No	1.93121539999265	0	279213	251
546.396484375	2	taste	foodImageDisplay	1	38	38	foodImage.64	FOODEEG_Images\0647.jpg	NY	Left	No	1.93121539999265	0	279756	252
548.458984375	1.93121539999265	taste	choicePhaseStart	1	38	38	foodImage.64	FOODEEG_Images\0647.jpg	NY	Left	No	1.93121539999265	0	280812	253
550.380859375	0	taste	response	1	38	38	foodImage.64	FOODEEG_Images\0647.jpg	NY	Left	No	1.93121539999265	0	281796	234
551.42578125	1	health	trialStart	1	39	39	foodImage.77	FOODEEG_Images\0771.jpg	NY	Right	Yes	0.969070999999531	0	282331	251
552.46875	2	health	foodImageDisplay	1	39	39	foodImage.77	FOODEEG_Images\0771.jpg	NY	Right	Yes	0.969070999999531	0	282865	252
554.533203125	0.969070999999531	health	choicePhaseStart	1	39	39	foodImage.77	FOODEEG_Images\0771.jpg	NY	Right	Yes	0.969070999999531	0	283922	253
555.494140625	0	health	response	1	39	39	foodImage.77	FOODEEG_Images\0771.jpg	NY	Right	Yes	0.969070999999531	0	284414	235
556.537109375	1	decision	trialStart	1	40	40	foodImage.1	FOODEEG_Images\0004.jpg	NY	Right	Yes	1.58957429998554	0	284948	251
557.578125	2	decision	foodImageDisplay	1	40	40	foodImage.1	FOODEEG_Images\0004.jpg	NY	Right	Yes	1.58957429998554	0	285481	252
559.640625	1.58957429998554	decision	choicePhaseStart	1	40	40	foodImage.1	FOODEEG_Images\0004.jpg	NY	Right	Yes	1.58957429998554	0	286537	253
561.220703125	0	decision	response	1	40	40	foodImage.1	FOODEEG_Images\0004.jpg	NY	Right	Yes	1.58957429998554	0	287346	235
562.263671875	1	health	trialStart	1	41	41	foodImage.24	FOODEEG_Images\0250.jpg	YN	Left	Yes	0.795747399999527	0	287880	251
563.306640625	2	health	foodImageDisplay	1	41	41	foodImage.24	FOODEEG_Images\0250.jpg	YN	Left	Yes	0.795747399999527	0	288414	252
565.37109375	0.795747399999527	health	choicePhaseStart	1	41	41	foodImage.24	FOODEEG_Images\0250.jpg	YN	Left	Yes	0.795747399999527	0	289471	253
566.15625	0	health	response	1	41	41	foodImage.24	FOODEEG_Images\0250.jpg	YN	Left	Yes	0.795747399999527	0	289873	234
567.19921875	1	taste	trialStart	1	42	42	foodImage.63	FOODEEG_Images\0645.jpg	YN	Left	Yes	1.08178499998758	0	290407	251
568.2421875	2	taste	foodImageDisplay	1	42	42	foodImage.63	FOODEEG_Images\0645.jpg	YN	Left	Yes	1.08178499998758	0	290941	252
570.306640625	1.08178499998758	taste	choicePhaseStart	1	42	42	foodImage.63	FOODEEG_Images\0645.jpg	YN	Left	Yes	1.08178499998758	0	291998	253
571.380859375	0	taste	response	1	42	42	foodImage.63	FOODEEG_Images\0645.jpg	YN	Left	Yes	1.08178499998758	0	292548	234
572.423828125	1	decision	trialStart	1	43	43	foodImage.100	FOODEEG_Images\0908.jpg	YN	Right	No	0.871797400002833	0	293082	251
573.462890625	2	decision	foodImageDisplay	1	43	43	foodImage.100	FOODEEG_Images\0908.jpg	YN	Right	No	0.871797400002833	0	293614	252
575.52734375	0.871797400002833	decision	choicePhaseStart	1	43	43	foodImage.100	FOODEEG_Images\0908.jpg	YN	Right	No	0.871797400002833	0	294671	253
576.388671875	0	decision	response	1	43	43	foodImage.100	FOODEEG_Images\0908.jpg	YN	Right	No	0.871797400002833	0	295112	235
577.431640625	1	health	trialStart	1	44	44	foodImage.10	FOODEEG_Images\0145.jpg	NY	Left	No	1.36380020002252	0	295646	251
578.490234375	2	health	foodImageDisplay	1	44	44	foodImage.10	FOODEEG_Images\0145.jpg	NY	Left	No	1.36380020002252	0	296188	252
580.552734375	1.36380020002252	health	choicePhaseStart	1	44	44	foodImage.10	FOODEEG_Images\0145.jpg	NY	Left	No	1.36380020002252	0	297244	253
581.908203125	0	health	response	1	44	44	foodImage.10	FOODEEG_Images\0145.jpg	NY	Left	No	1.36380020002252	0	297938	234
582.955078125	1	decision	trialStart	1	45	45	foodImage.97	FOODEEG_Images\0905.jpg	NY	Left	No	0.889804799982812	0	298474	251
584.01171875	2	decision	foodImageDisplay	1	45	45	foodImage.97	FOODEEG_Images\0905.jpg	NY	Left	No	0.889804799982812	0	299015	252
586.076171875	0.889804799982812	decision	choicePhaseStart	1	45	45	foodImage.97	FOODEEG_Images\0905.jpg	NY	Left	No	0.889804799982812	0	300072	253
586.955078125	0	decision	response	1	45	45	foodImage.97	FOODEEG_Images\0905.jpg	NY	Left	No	0.889804799982812	0	300522	234
587.998046875	1	decision	trialStart	1	46	46	foodImage.20	FOODEEG_Images\0226.jpg	YN	Left	Yes	0.791310100001283	0	301056	251
589.0390625	2	decision	foodImageDisplay	1	46	46	foodImage.20	FOODEEG_Images\0226.jpg	YN	Left	Yes	0.791310100001283	0	301589	252
591.107421875	0.791310100001283	decision	choicePhaseStart	1	46	46	foodImage.20	FOODEEG_Images\0226.jpg	YN	Left	Yes	0.791310100001283	0	302648	253
591.892578125	0	decision	response	1	46	46	foodImage.20	FOODEEG_Images\0226.jpg	YN	Left	Yes	0.791310100001283	0	303050	234
592.9453125	1	health	trialStart	1	47	47	foodImage.8	FOODEEG_Images\0136.jpg	NY	Left	No	1.17266910002218	0	303589	251
593.9921875	2	health	foodImageDisplay	1	47	47	foodImage.8	FOODEEG_Images\0136.jpg	NY	Left	No	1.17266910002218	0	304125	252
596.0546875	1.17266910002218	health	choicePhaseStart	1	47	47	foodImage.8	FOODEEG_Images\0136.jpg	NY	Left	No	1.17266910002218	0	305181	253
597.21875	0	health	response	1	47	47	foodImage.8	FOODEEG_Images\0136.jpg	NY	Left	No	1.17266910002218	0	305777	234
598.263671875	1	taste	trialStart	1	48	48	foodImage.68	FOODEEG_Images\0685.jpg	NY	Right	Yes	1.24423059998662	0	306312	251
599.337890625	2	taste	foodImageDisplay	1	48	48	foodImage.68	FOODEEG_Images\0685.jpg	NY	Right	Yes	1.24423059998662	0	306862	252
601.40625	1.24423059998662	taste	choicePhaseStart	1	48	48	foodImage.68	FOODEEG_Images\0685.jpg	NY	Right	Yes	1.24423059998662	0	307921	253
602.642578125	0	taste	response	1	48	48	foodImage.68	FOODEEG_Images\0685.jpg	NY	Right	Yes	1.24423059998662	0	308554	235
603.685546875	1	health	trialStart	1	49	49	foodImage.6	FOODEEG_Images\0113.jpg	YN	Right	No	1.66355160000967	0	309088	251
604.73046875	2	health	foodImageDisplay	1	49	49	foodImage.6	FOODEEG_Images\0113.jpg	YN	Right	No	1.66355160000967	0	309623	252
606.794921875	1.66355160000967	health	choicePhaseStart	1	49	49	foodImage.6	FOODEEG_Images\0113.jpg	YN	Right	No	1.66355160000967	0	310680	253
608.451171875	0	health	response	1	49	49	foodImage.6	FOODEEG_Images\0113.jpg	YN	Right	No	1.66355160000967	0	311528	235
609.494140625	1	decision	trialStart	1	50	50	foodImage.13	FOODEEG_Images\0183.jpg	YN	Left	Yes	1.21109339999384	0	312062	251
610.5390625	2	decision	foodImageDisplay	1	50	50	foodImage.13	FOODEEG_Images\0183.jpg	YN	Left	Yes	1.21109339999384	0	312597	252
612.6015625	1.21109339999384	decision	choicePhaseStart	1	50	50	foodImage.13	FOODEEG_Images\0183.jpg	YN	Left	Yes	1.21109339999384	0	313653	253
613.802734375	0	decision	response	1	50	50	foodImage.13	FOODEEG_Images\0183.jpg	YN	Left	Yes	1.21109339999384	0	314268	234
614.84375	1	taste	trialStart	1	51	51	foodImage.71	FOODEEG_Images\0713.jpg	YN	Left	Yes	0.790855699975509	0	314801	251
615.88671875	2	taste	foodImageDisplay	1	51	51	foodImage.71	FOODEEG_Images\0713.jpg	YN	Left	Yes	0.790855699975509	0	315335	252
617.94921875	0.790855699975509	taste	choicePhaseStart	1	51	51	foodImage.71	FOODEEG_Images\0713.jpg	YN	Left	Yes	0.790855699975509	0	316391	253
618.73046875	0	taste	response	1	51	51	foodImage.71	FOODEEG_Images\0713.jpg	YN	Left	Yes	0.790855699975509	0	316791	234
619.775390625	1	decision	trialStart	1	52	52	foodImage.22	FOODEEG_Images\0236.jpg	YN	Left	Yes	0.70919949997915	0	317326	251
620.81640625	2	decision	foodImageDisplay	1	52	52	foodImage.22	FOODEEG_Images\0236.jpg	YN	Left	Yes	0.70919949997915	0	317859	252
622.87890625	0.70919949997915	decision	choicePhaseStart	1	52	52	foodImage.22	FOODEEG_Images\0236.jpg	YN	Left	Yes	0.70919949997915	0	318915	253
623.578125	0	decision	response	1	52	52	foodImage.22	FOODEEG_Images\0236.jpg	YN	Left	Yes	0.70919949997915	0	319273	234
624.62109375	1	decision	trialStart	1	53	53	foodImage.117	FOODEEG_Images\0925.jpg	NY	Right	Yes	1.02435449999757	0	319807	251
625.66015625	2	decision	foodImageDisplay	1	53	53	foodImage.117	FOODEEG_Images\0925.jpg	NY	Right	Yes	1.02435449999757	0	320339	252
627.72265625	1.02435449999757	decision	choicePhaseStart	1	53	53	foodImage.117	FOODEEG_Images\0925.jpg	NY	Right	Yes	1.02435449999757	0	321395	253
628.73828125	0	decision	response	1	53	53	foodImage.117	FOODEEG_Images\0925.jpg	NY	Right	Yes	1.02435449999757	0	321915	235
629.78125	1	taste	trialStart	1	54	54	foodImage.24	FOODEEG_Images\0250.jpg	NY	Right	Yes	1.1239682000014	0	322449	251
630.82421875	2	taste	foodImageDisplay	1	54	54	foodImage.24	FOODEEG_Images\0250.jpg	NY	Right	Yes	1.1239682000014	0	322983	252
632.88671875	1.1239682000014	taste	choicePhaseStart	1	54	54	foodImage.24	FOODEEG_Images\0250.jpg	NY	Right	Yes	1.1239682000014	0	324039	253
634.001953125	0	taste	response	1	54	54	foodImage.24	FOODEEG_Images\0250.jpg	NY	Right	Yes	1.1239682000014	0	324610	235
635.04296875	1	taste	trialStart	1	55	55	foodImage.117	FOODEEG_Images\0925.jpg	YN	Left	Yes	0.914707999996608	0	325143	251
636.08203125	2	taste	foodImageDisplay	1	55	55	foodImage.117	FOODEEG_Images\0925.jpg	YN	Left	Yes	0.914707999996608	0	325675	252
638.14453125	0.914707999996608	taste	choicePhaseStart	1	55	55	foodImage.117	FOODEEG_Images\0925.jpg	YN	Left	Yes	0.914707999996608	0	326731	253
639.05078125	0	taste	response	1	55	55	foodImage.117	FOODEEG_Images\0925.jpg	YN	Left	Yes	0.914707999996608	0	327195	234
640.099609375	1	decision	trialStart	1	56	56	foodImage.64	FOODEEG_Images\0647.jpg	NY	Left	No	1.5677893999964	0	327732	251
641.154296875	2	decision	foodImageDisplay	1	56	56	foodImage.64	FOODEEG_Images\0647.jpg	NY	Left	No	1.5677893999964	0	328272	252
643.21875	1.5677893999964	decision	choicePhaseStart	1	56	56	foodImage.64	FOODEEG_Images\0647.jpg	NY	Left	No	1.5677893999964	0	329329	253
644.77734375	0	decision	response	1	56	56	foodImage.64	FOODEEG_Images\0647.jpg	NY	Left	No	1.5677893999964	0	330127	234
645.8203125	1	taste	trialStart	1	57	57	foodImage.26	FOODEEG_Images\0262.jpg	YN	Left	Yes	0.684880499989958	0	330661	251
646.86328125	2	taste	foodImageDisplay	1	57	57	foodImage.26	FOODEEG_Images\0262.jpg	YN	Left	Yes	0.684880499989958	0	331195	252
648.92578125	0.684880499989958	taste	choicePhaseStart	1	57	57	foodImage.26	FOODEEG_Images\0262.jpg	YN	Left	Yes	0.684880499989958	0	332251	253
649.6015625	0	taste	response	1	57	57	foodImage.26	FOODEEG_Images\0262.jpg	YN	Left	Yes	0.684880499989958	0	332597	234
650.64453125	1	taste	trialStart	1	58	58	foodImage.55	FOODEEG_Images\0567.jpg	NY	Left	No	1.00340539999888	0	333131	251
651.703125	2	taste	foodImageDisplay	1	58	58	foodImage.55	FOODEEG_Images\0567.jpg	NY	Left	No	1.00340539999888	0	333673	252
653.767578125	1.00340539999888	taste	choicePhaseStart	1	58	58	foodImage.55	FOODEEG_Images\0567.jpg	NY	Left	No	1.00340539999888	0	334730	253
654.76171875	0	taste	response	1	58	58	foodImage.55	FOODEEG_Images\0567.jpg	NY	Left	No	1.00340539999888	0	335239	234
655.8046875	1	decision	trialStart	1	59	59	foodImage.87	FOODEEG_Images\0873.jpg	NY	Right	Yes	0.808919300005073	0	335773	251
656.86328125	2	decision	foodImageDisplay	1	59	59	foodImage.87	FOODEEG_Images\0873.jpg	NY	Right	Yes	0.808919300005073	0	336315	252
658.927734375	0.808919300005073	decision	choicePhaseStart	1	59	59	foodImage.87	FOODEEG_Images\0873.jpg	NY	Right	Yes	0.808919300005073	0	337372	253
659.728515625	0	decision	response	1	59	59	foodImage.87	FOODEEG_Images\0873.jpg	NY	Right	Yes	0.808919300005073	0	337782	235
660.7734375	1	health	trialStart	1	60	60	foodImage.52	FOODEEG_Images\0539.jpg	NY	Right	Yes	1.18547620001482	0	338317	251
661.83203125	2	health	foodImageDisplay	1	60	60	foodImage.52	FOODEEG_Images\0539.jpg	NY	Right	Yes	1.18547620001482	0	338859	252
663.896484375	1.18547620001482	health	choicePhaseStart	1	60	60	foodImage.52	FOODEEG_Images\0539.jpg	NY	Right	Yes	1.18547620001482	0	339916	253
665.072265625	0	health	response	1	60	60	foodImage.52	FOODEEG_Images\0539.jpg	NY	Right	Yes	1.18547620001482	0	340518	235
667.11328125	7.21875	n/a	blockEnd	n/a	n/a	n/a	n/a	n/a	n/a	n/a	n/a	n/a	n/a	341563	254
674.33203125	2	n/a	blockStart	2	n/a	n/a	n/a	n/a	n/a	n/a	n/a	n/a	n/a	345259	250
676.365234375	1	decision	trialStart	2	61	1	foodImage.57	FOODEEG_Images\0587.jpg	NY	Right	Yes	4.70477969999774	0	346300	251
677.4140625	2	decision	foodImageDisplay	2	61	1	foodImage.57	FOODEEG_Images\0587.jpg	NY	Right	Yes	4.70477969999774	0	346837	252
679.478515625	4.70477969999774	decision	choicePhaseStart	2	61	1	foodImage.57	FOODEEG_Images\0587.jpg	NY	Right	Yes	4.70477969999774	0	347894	253
684.17578125	0	decision	response	2	61	1	foodImage.57	FOODEEG_Images\0587.jpg	NY	Right	Yes	4.70477969999774	0	350299	235
685.216796875	1	taste	trialStart	2	62	2	foodImage.20	FOODEEG_Images\0226.jpg	YN	Left	Yes	1.4390327000001	0	350832	251
686.2578125	2	taste	foodImageDisplay	2	62	2	foodImage.20	FOODEEG_Images\0226.jpg	YN	Left	Yes	1.4390327000001	0	351365	252
688.322265625	1.4390327000001	taste	choicePhaseStart	2	62	2	foodImage.20	FOODEEG_Images\0226.jpg	YN	Left	Yes	1.4390327000001	0	352422	253
689.751953125	0	taste	response	2	62	2	foodImage.20	FOODEEG_Images\0226.jpg	YN	Left	Yes	1.4390327000001	0	353154	234
690.794921875	1	health	trialStart	2	63	3	foodImage.46	FOODEEG_Images\0479.jpg	YN	Left	Yes	0.837536599981831	0	353688	251
691.853515625	2	health	foodImageDisplay	2	63	3	foodImage.46	FOODEEG_Images\0479.jpg	YN	Left	Yes	0.837536599981831	0	354230	252
693.916015625	0.837536599981831	health	choicePhaseStart	2	63	3	foodImage.46	FOODEEG_Images\0479.jpg	YN	Left	Yes	0.837536599981831	0	355286	253
694.744140625	0	health	response	2	63	3	foodImage.46	FOODEEG_Images\0479.jpg	YN	Left	Yes	0.837536599981831	0	355710	234
695.787109375	1	taste	trialStart	2	64	4	foodImage.8	FOODEEG_Images\0136.jpg	NY	Left	No	1.54243309999583	0	356244	251
696.828125	2	taste	foodImageDisplay	2	64	4	foodImage.8	FOODEEG_Images\0136.jpg	NY	Left	No	1.54243309999583	0	356777	252
698.890625	1.54243309999583	taste	choicePhaseStart	2	64	4	foodImage.8	FOODEEG_Images\0136.jpg	NY	Left	No	1.54243309999583	0	357833	253
700.423828125	0	taste	response	2	64	4	foodImage.8	FOODEEG_Images\0136.jpg	NY	Left	No	1.54243309999583	0	358618	234
701.466796875	1	health	trialStart	2	65	5	foodImage.56	FOODEEG_Images\0586.jpg	YN	Right	No	1.25857359997462	0	359152	251
702.509765625	2	health	foodImageDisplay	2	65	5	foodImage.56	FOODEEG_Images\0586.jpg	YN	Right	No	1.25857359997462	0	359686	252
704.572265625	1.25857359997462	health	choicePhaseStart	2	65	5	foodImage.56	FOODEEG_Images\0586.jpg	YN	Right	No	1.25857359997462	0	360742	253
705.822265625	0	health	response	2	65	5	foodImage.56	FOODEEG_Images\0586.jpg	YN	Right	No	1.25857359997462	0	361382	235
706.865234375	1	decision	trialStart	2	66	6	foodImage.41	FOODEEG_Images\0409.jpg	NY	Left	No	1.07036339998012	0	361916	251
707.912109375	2	decision	foodImageDisplay	2	66	6	foodImage.41	FOODEEG_Images\0409.jpg	NY	Left	No	1.07036339998012	0	362452	252
709.9765625	1.07036339998012	decision	choicePhaseStart	2	66	6	foodImage.41	FOODEEG_Images\0409.jpg	NY	Left	No	1.07036339998012	0	363509	253
711.0390625	0	decision	response	2	66	6	foodImage.41	FOODEEG_Images\0409.jpg	NY	Left	No	1.07036339998012	0	364053	234
712.08203125	1	health	trialStart	2	67	7	foodImage.115	FOODEEG_Images\0923.jpg	NY	Left	No	1.28487050000695	0	364587	251
713.123046875	2	health	foodImageDisplay	2	67	7	foodImage.115	FOODEEG_Images\0923.jpg	NY	Left	No	1.28487050000695	0	365120	252
715.1875	1.28487050000695	health	choicePhaseStart	2	67	7	foodImage.115	FOODEEG_Images\0923.jpg	NY	Left	No	1.28487050000695	0	366177	253
716.462890625	0	health	response	2	67	7	foodImage.115	FOODEEG_Images\0923.jpg	NY	Left	No	1.28487050000695	0	366830	234
717.505859375	1	decision	trialStart	2	68	8	foodImage.63	FOODEEG_Images\0645.jpg	YN	Left	Yes	1.29277310002362	0	367364	251
718.548828125	2	decision	foodImageDisplay	2	68	8	foodImage.63	FOODEEG_Images\0645.jpg	YN	Left	Yes	1.29277310002362	0	367898	252
720.611328125	1.29277310002362	decision	choicePhaseStart	2	68	8	foodImage.63	FOODEEG_Images\0645.jpg	YN	Left	Yes	1.29277310002362	0	368954	253
721.89453125	0	decision	response	2	68	8	foodImage.63	FOODEEG_Images\0645.jpg	YN	Left	Yes	1.29277310002362	0	369611	234
722.9375	1	health	trialStart	2	69	9	foodImage.22	FOODEEG_Images\0236.jpg	NY	Right	Yes	1.09672319999663	0	370145	251
723.982421875	2	health	foodImageDisplay	2	69	9	foodImage.22	FOODEEG_Images\0236.jpg	NY	Right	Yes	1.09672319999663	0	370680	252
726.046875	1.09672319999663	health	choicePhaseStart	2	69	9	foodImage.22	FOODEEG_Images\0236.jpg	NY	Right	Yes	1.09672319999663	0	371737	253
727.134765625	0	health	response	2	69	9	foodImage.22	FOODEEG_Images\0236.jpg	NY	Right	Yes	1.09672319999663	0	372294	235
728.177734375	1	health	trialStart	2	70	10	foodImage.47	FOODEEG_Images\0488.jpg	NY	Left	No	0.707957100006752	0	372828	251
729.220703125	2	health	foodImageDisplay	2	70	10	foodImage.47	FOODEEG_Images\0488.jpg	NY	Left	No	0.707957100006752	0	373362	252
731.283203125	0.707957100006752	health	choicePhaseStart	2	70	10	foodImage.47	FOODEEG_Images\0488.jpg	NY	Left	No	0.707957100006752	0	374418	253
731.982421875	0	health	response	2	70	10	foodImage.47	FOODEEG_Images\0488.jpg	NY	Left	No	0.707957100006752	0	374776	234
733.025390625	1	health	trialStart	2	71	11	foodImage.20	FOODEEG_Images\0226.jpg	NY	Right	Yes	1.81345190000138	0	375310	251
734.06640625	2	health	foodImageDisplay	2	71	11	foodImage.20	FOODEEG_Images\0226.jpg	NY	Right	Yes	1.81345190000138	0	375843	252
736.130859375	1.81345190000138	health	choicePhaseStart	2	71	11	foodImage.20	FOODEEG_Images\0226.jpg	NY	Right	Yes	1.81345190000138	0	376900	253
737.93359375	0	health	response	2	71	11	foodImage.20	FOODEEG_Images\0226.jpg	NY	Right	Yes	1.81345190000138	0	377823	235
738.9765625	1	taste	trialStart	2	72	12	foodImage.74	FOODEEG_Images\0752.jpg	YN	Left	Yes	0.76433070001076	0	378357	251
740.01953125	2	taste	foodImageDisplay	2	72	12	foodImage.74	FOODEEG_Images\0752.jpg	YN	Left	Yes	0.76433070001076	0	378891	252
742.08203125	0.76433070001076	taste	choicePhaseStart	2	72	12	foodImage.74	FOODEEG_Images\0752.jpg	YN	Left	Yes	0.76433070001076	0	379947	253
742.837890625	0	taste	response	2	72	12	foodImage.74	FOODEEG_Images\0752.jpg	YN	Left	Yes	0.76433070001076	0	380334	234
743.880859375	1	decision	trialStart	2	73	13	foodImage.62	FOODEEG_Images\0644.jpg	YN	Left	Yes	0.972615299979225	0	380868	251
744.947265625	2	decision	foodImageDisplay	2	73	13	foodImage.62	FOODEEG_Images\0644.jpg	YN	Left	Yes	0.972615299979225	0	381414	252
747.01171875	0.972615299979225	decision	choicePhaseStart	2	73	13	foodImage.62	FOODEEG_Images\0644.jpg	YN	Left	Yes	0.972615299979225	0	382471	253
747.974609375	0	decision	response	2	73	13	foodImage.62	FOODEEG_Images\0644.jpg	YN	Left	Yes	0.972615299979225	0	382964	234
749.015625	1	health	trialStart	2	74	14	foodImage.118	FOODEEG_Images\0926.jpg	NY	Left	No	1.17858340000384	0	383497	251
750.0546875	2	health	foodImageDisplay	2	74	14	foodImage.118	FOODEEG_Images\0926.jpg	NY	Left	No	1.17858340000384	0	384029	252
752.123046875	1.17858340000384	health	choicePhaseStart	2	74	14	foodImage.118	FOODEEG_Images\0926.jpg	NY	Left	No	1.17858340000384	0	385088	253
753.29296875	0	health	response	2	74	14	foodImage.118	FOODEEG_Images\0926.jpg	NY	Left	No	1.17858340000384	0	385687	234
754.3359375	1	taste	trialStart	2	75	15	foodImage.100	FOODEEG_Images\0908.jpg	YN	Right	No	1.21511550000287	0	386221	251
755.375	2	taste	foodImageDisplay	2	75	15	foodImage.100	FOODEEG_Images\0908.jpg	YN	Right	No	1.21511550000287	0	386753	252
757.439453125	1.21511550000287	taste	choicePhaseStart	2	75	15	foodImage.100	FOODEEG_Images\0908.jpg	YN	Right	No	1.21511550000287	0	387810	253
758.64453125	0	taste	response	2	75	15	foodImage.100	FOODEEG_Images\0908.jpg	YN	Right	No	1.21511550000287	0	388427	235
759.6875	1	health	trialStart	2	76	16	foodImage.53	FOODEEG_Images\0547.jpg	NY	Left	No	1.12294250002014	0	388961	251
760.748046875	2	health	foodImageDisplay	2	76	16	foodImage.53	FOODEEG_Images\0547.jpg	NY	Left	No	1.12294250002014	0	389504	252
762.810546875	1.12294250002014	health	choicePhaseStart	2	76	16	foodImage.53	FOODEEG_Images\0547.jpg	NY	Left	No	1.12294250002014	0	390560	253
763.92578125	0	health	response	2	76	16	foodImage.53	FOODEEG_Images\0547.jpg	NY	Left	No	1.12294250002014	0	391131	234
764.966796875	1	taste	trialStart	2	77	17	foodImage.66	FOODEEG_Images\0676.jpg	NY	Right	Yes	1.62280919999466	0	391664	251
766.0078125	2	taste	foodImageDisplay	2	77	17	foodImage.66	FOODEEG_Images\0676.jpg	NY	Right	Yes	1.62280919999466	0	392197	252
768.0703125	1.62280919999466	taste	choicePhaseStart	2	77	17	foodImage.66	FOODEEG_Images\0676.jpg	NY	Right	Yes	1.62280919999466	0	393253	253
769.68359375	0	taste	response	2	77	17	foodImage.66	FOODEEG_Images\0676.jpg	NY	Right	Yes	1.62280919999466	0	394079	235
770.728515625	1	taste	trialStart	2	78	18	foodImage.77	FOODEEG_Images\0771.jpg	NY	Right	Yes	0.819177500001388	0	394614	251
771.771484375	2	taste	foodImageDisplay	2	78	18	foodImage.77	FOODEEG_Images\0771.jpg	NY	Right	Yes	0.819177500001388	0	395148	252
773.8359375	0.819177500001388	taste	choicePhaseStart	2	78	18	foodImage.77	FOODEEG_Images\0771.jpg	NY	Right	Yes	0.819177500001388	0	396205	253
774.64453125	0	taste	response	2	78	18	foodImage.77	FOODEEG_Images\0771.jpg	NY	Right	Yes	0.819177500001388	0	396619	235
775.6953125	1	health	trialStart	2	79	19	foodImage.15	FOODEEG_Images\0189.jpg	YN	Right	No	2.07337410000036	0	397157	251
776.75390625	2	health	foodImageDisplay	2	79	19	foodImage.15	FOODEEG_Images\0189.jpg	YN	Right	No	2.07337410000036	0	397699	252
778.818359375	2.07337410000036	health	choicePhaseStart	2	79	19	foodImage.15	FOODEEG_Images\0189.jpg	YN	Right	No	2.07337410000036	0	398756	253
780.884765625	0	health	response	2	79	19	foodImage.15	FOODEEG_Images\0189.jpg	YN	Right	No	2.07337410000036	0	399814	235
781.927734375	1	decision	trialStart	2	80	20	foodImage.3	FOODEEG_Images\0046.jpg	YN	Left	Yes	0.868295899999794	0	400348	251
782.96875	2	decision	foodImageDisplay	2	80	20	foodImage.3	FOODEEG_Images\0046.jpg	YN	Left	Yes	0.868295899999794	0	400881	252
785.033203125	0.868295899999794	decision	choicePhaseStart	2	80	20	foodImage.3	FOODEEG_Images\0046.jpg	YN	Left	Yes	0.868295899999794	0	401938	253
785.892578125	0	decision	response	2	80	20	foodImage.3	FOODEEG_Images\0046.jpg	YN	Left	Yes	0.868295899999794	0	402378	234
786.935546875	1	taste	trialStart	2	81	21	foodImage.50	FOODEEG_Images\0529.jpg	NY	Right	Yes	0.986162000015611	0	402912	251
787.9921875	2	taste	foodImageDisplay	2	81	21	foodImage.50	FOODEEG_Images\0529.jpg	NY	Right	Yes	0.986162000015611	0	403453	252
790.056640625	0.986162000015611	taste	choicePhaseStart	2	81	21	foodImage.50	FOODEEG_Images\0529.jpg	NY	Right	Yes	0.986162000015611	0	404510	253
791.037109375	0	taste	response	2	81	21	foodImage.50	FOODEEG_Images\0529.jpg	NY	Right	Yes	0.986162000015611	0	405012	235
792.078125	1	decision	trialStart	2	82	22	foodImage.95	FOODEEG_Images\0903.jpg	YN	Right	No	0.987039200001163	0	405545	251
793.1171875	2	decision	foodImageDisplay	2	82	22	foodImage.95	FOODEEG_Images\0903.jpg	YN	Right	No	0.987039200001163	0	406077	252
795.185546875	0.987039200001163	decision	choicePhaseStart	2	82	22	foodImage.95	FOODEEG_Images\0903.jpg	YN	Right	No	0.987039200001163	0	407136	253
796.1640625	0	decision	response	2	82	22	foodImage.95	FOODEEG_Images\0903.jpg	YN	Right	No	0.987039200001163	0	407637	235
797.2109375	1	taste	trialStart	2	83	23	foodImage.91	FOODEEG_Images\0896.jpg	YN	Right	No	1.06003289998625	0	408173	251
798.271484375	2	taste	foodImageDisplay	2	83	23	foodImage.91	FOODEEG_Images\0896.jpg	YN	Right	No	1.06003289998625	0	408716	252
800.3359375	1.06003289998625	taste	choicePhaseStart	2	83	23	foodImage.91	FOODEEG_Images\0896.jpg	YN	Right	No	1.06003289998625	0	409773	253
801.38671875	0	taste	response	2	83	23	foodImage.91	FOODEEG_Images\0896.jpg	YN	Right	No	1.06003289998625	0	410311	235
802.431640625	1	decision	trialStart	2	84	24	foodImage.15	FOODEEG_Images\0189.jpg	NY	Right	Yes	1.18804969999474	0	410846	251
803.48828125	2	decision	foodImageDisplay	2	84	24	foodImage.15	FOODEEG_Images\0189.jpg	NY	Right	Yes	1.18804969999474	0	411387	252
805.552734375	1.18804969999474	decision	choicePhaseStart	2	84	24	foodImage.15	FOODEEG_Images\0189.jpg	NY	Right	Yes	1.18804969999474	0	412444	253
806.73046875	0	decision	response	2	84	24	foodImage.15	FOODEEG_Images\0189.jpg	NY	Right	Yes	1.18804969999474	0	413047	235
807.7734375	1	decision	trialStart	2	85	25	foodImage.36	FOODEEG_Images\0352.jpg	NY	Right	Yes	0.908240100019611	0	413581	251
808.83203125	2	decision	foodImageDisplay	2	85	25	foodImage.36	FOODEEG_Images\0352.jpg	NY	Right	Yes	0.908240100019611	0	414123	252
810.896484375	0.908240100019611	decision	choicePhaseStart	2	85	25	foodImage.36	FOODEEG_Images\0352.jpg	NY	Right	Yes	0.908240100019611	0	415180	253
811.794921875	0	decision	response	2	85	25	foodImage.36	FOODEEG_Images\0352.jpg	NY	Right	Yes	0.908240100019611	0	415640	235
812.841796875	1	decision	trialStart	2	86	26	foodImage.31	FOODEEG_Images\0294.jpg	NY	Right	Yes	0.992526099988027	0	416176	251
813.884765625	2	decision	foodImageDisplay	2	86	26	foodImage.31	FOODEEG_Images\0294.jpg	NY	Right	Yes	0.992526099988027	0	416710	252
815.947265625	0.992526099988027	decision	choicePhaseStart	2	86	26	foodImage.31	FOODEEG_Images\0294.jpg	NY	Right	Yes	0.992526099988027	0	417766	253
816.931640625	0	decision	response	2	86	26	foodImage.31	FOODEEG_Images\0294.jpg	NY	Right	Yes	0.992526099988027	0	418270	235
817.97265625	1	taste	trialStart	2	87	27	foodImage.36	FOODEEG_Images\0352.jpg	YN	Left	Yes	0.801014399999985	0	418803	251
819.033203125	2	taste	foodImageDisplay	2	87	27	foodImage.36	FOODEEG_Images\0352.jpg	YN	Left	Yes	0.801014399999985	0	419346	252
821.09765625	0.801014399999985	taste	choicePhaseStart	2	87	27	foodImage.36	FOODEEG_Images\0352.jpg	YN	Left	Yes	0.801014399999985	0	420403	253
821.890625	0	taste	response	2	87	27	foodImage.36	FOODEEG_Images\0352.jpg	YN	Left	Yes	0.801014399999985	0	420809	234
822.93359375	1	decision	trialStart	2	88	28	foodImage.61	FOODEEG_Images\0640.jpg	NY	Right	Yes	0.842082499992102	0	421343	251
823.9765625	2	decision	foodImageDisplay	2	88	28	foodImage.61	FOODEEG_Images\0640.jpg	NY	Right	Yes	0.842082499992102	0	421877	252
826.041015625	0.842082499992102	decision	choicePhaseStart	2	88	28	foodImage.61	FOODEEG_Images\0640.jpg	NY	Right	Yes	0.842082499992102	0	422934	253
826.875	0	decision	response	2	88	28	foodImage.61	FOODEEG_Images\0640.jpg	NY	Right	Yes	0.842082499992102	0	423361	235
827.91796875	1	decision	trialStart	2	89	29	foodImage.12	FOODEEG_Images\0181.jpg	YN	Right	No	1.4833982999844	0	423895	251
828.9609375	2	decision	foodImageDisplay	2	89	29	foodImage.12	FOODEEG_Images\0181.jpg	YN	Right	No	1.4833982999844	0	424429	252
831.0234375	1.4833982999844	decision	choicePhaseStart	2	89	29	foodImage.12	FOODEEG_Images\0181.jpg	YN	Right	No	1.4833982999844	0	425485	253
832.498046875	0	decision	response	2	89	29	foodImage.12	FOODEEG_Images\0181.jpg	YN	Right	No	1.4833982999844	0	426240	235
833.54296875	1	decision	trialStart	2	90	30	foodImage.93	FOODEEG_Images\0901.jpg	YN	Right	No	0.836248600011459	0	426775	251
834.58203125	2	decision	foodImageDisplay	2	90	30	foodImage.93	FOODEEG_Images\0901.jpg	YN	Right	No	0.836248600011459	0	427307	252
836.646484375	0.836248600011459	decision	choicePhaseStart	2	90	30	foodImage.93	FOODEEG_Images\0901.jpg	YN	Right	No	0.836248600011459	0	428364	253
837.474609375	0	decision	response	2	90	30	foodImage.93	FOODEEG_Images\0901.jpg	YN	Right	No	0.836248600011459	0	428788	235
838.5234375	1	health	trialStart	2	91	31	foodImage.101	FOODEEG_Images\0909.jpg	NY	Left	No	1.28792210001848	0	429325	251
839.5625	2	health	foodImageDisplay	2	91	31	foodImage.101	FOODEEG_Images\0909.jpg	NY	Left	No	1.28792210001848	0	429857	252
841.626953125	1.28792210001848	health	choicePhaseStart	2	91	31	foodImage.101	FOODEEG_Images\0909.jpg	NY	Left	No	1.28792210001848	0	430914	253
842.90625	0	health	response	2	91	31	foodImage.101	FOODEEG_Images\0909.jpg	NY	Left	No	1.28792210001848	0	431569	234
843.94921875	1	decision	trialStart	2	92	32	foodImage.84	FOODEEG_Images\0830.jpg	NY	Right	Yes	1.07710269998643	0	432103	251
845.005859375	2	decision	foodImageDisplay	2	92	32	foodImage.84	FOODEEG_Images\0830.jpg	NY	Right	Yes	1.07710269998643	0	432644	252
847.0703125	1.07710269998643	decision	choicePhaseStart	2	92	32	foodImage.84	FOODEEG_Images\0830.jpg	NY	Right	Yes	1.07710269998643	0	433701	253
848.13671875	0	decision	response	2	92	32	foodImage.84	FOODEEG_Images\0830.jpg	NY	Right	Yes	1.07710269998643	0	434247	235
849.1796875	1	decision	trialStart	2	93	33	foodImage.71	FOODEEG_Images\0713.jpg	YN	Left	Yes	0.749447200010763	0	434781	251
850.22265625	2	decision	foodImageDisplay	2	93	33	foodImage.71	FOODEEG_Images\0713.jpg	YN	Left	Yes	0.749447200010763	0	435315	252
852.28515625	0.749447200010763	decision	choicePhaseStart	2	93	33	foodImage.71	FOODEEG_Images\0713.jpg	YN	Left	Yes	0.749447200010763	0	436371	253
853.025390625	0	decision	response	2	93	33	foodImage.71	FOODEEG_Images\0713.jpg	YN	Left	Yes	0.749447200010763	0	436750	234
854.068359375	1	taste	trialStart	2	94	34	foodImage.108	FOODEEG_Images\0916.jpg	NY	Left	No	0.86494010000024	0	437284	251
855.10546875	2	taste	foodImageDisplay	2	94	34	foodImage.108	FOODEEG_Images\0916.jpg	NY	Left	No	0.86494010000024	0	437815	252
857.169921875	0.86494010000024	taste	choicePhaseStart	2	94	34	foodImage.108	FOODEEG_Images\0916.jpg	NY	Left	No	0.86494010000024	0	438872	253
858.025390625	0	taste	response	2	94	34	foodImage.108	FOODEEG_Images\0916.jpg	NY	Left	No	0.86494010000024	0	439310	234
859.068359375	1	health	trialStart	2	95	35	foodImage.99	FOODEEG_Images\0907.jpg	NY	Left	No	0.797919000004185	0	439844	251
860.109375	2	health	foodImageDisplay	2	95	35	foodImage.99	FOODEEG_Images\0907.jpg	NY	Left	No	0.797919000004185	0	440377	252
862.171875	0.797919000004185	health	choicePhaseStart	2	95	35	foodImage.99	FOODEEG_Images\0907.jpg	NY	Left	No	0.797919000004185	0	441433	253
862.9609375	0	health	response	2	95	35	foodImage.99	FOODEEG_Images\0907.jpg	NY	Left	No	0.797919000004185	0	441837	234
864.005859375	1	health	trialStart	2	96	36	foodImage.2	FOODEEG_Images\0028.jpg	NY	Left	No	0.86987239998416	0	442372	251
865.048828125	2	health	foodImageDisplay	2	96	36	foodImage.2	FOODEEG_Images\0028.jpg	NY	Left	No	0.86987239998416	0	442906	252
867.115234375	0.86987239998416	health	choicePhaseStart	2	96	36	foodImage.2	FOODEEG_Images\0028.jpg	NY	Left	No	0.86987239998416	0	443964	253
867.9765625	0	health	response	2	96	36	foodImage.2	FOODEEG_Images\0028.jpg	NY	Left	No	0.86987239998416	0	444405	234
869.01953125	1	decision	trialStart	2	97	37	foodImage.5	FOODEEG_Images\0107.jpg	YN	Left	Yes	0.739207200007513	0	444939	251
870.080078125	2	decision	foodImageDisplay	2	97	37	foodImage.5	FOODEEG_Images\0107.jpg	YN	Left	Yes	0.739207200007513	0	445482	252
872.142578125	0.739207200007513	decision	choicePhaseStart	2	97	37	foodImage.5	FOODEEG_Images\0107.jpg	YN	Left	Yes	0.739207200007513	0	446538	253
872.873046875	0	decision	response	2	97	37	foodImage.5	FOODEEG_Images\0107.jpg	YN	Left	Yes	0.739207200007513	0	446912	234
873.916015625	1	decision	trialStart	2	98	38	foodImage.55	FOODEEG_Images\0567.jpg	NY	Left	No	1.12312669999665	0	447446	251
874.974609375	2	decision	foodImageDisplay	2	98	38	foodImage.55	FOODEEG_Images\0567.jpg	NY	Left	No	1.12312669999665	0	447988	252
877.0390625	1.12312669999665	decision	choicePhaseStart	2	98	38	foodImage.55	FOODEEG_Images\0567.jpg	NY	Left	No	1.12312669999665	0	449045	253
878.15234375	0	decision	response	2	98	38	foodImage.55	FOODEEG_Images\0567.jpg	NY	Left	No	1.12312669999665	0	449615	234
879.1953125	1	decision	trialStart	2	99	39	foodImage.37	FOODEEG_Images\0359.jpg	NY	Right	Yes	1.00261359999422	0	450149	251
880.265625	2	decision	foodImageDisplay	2	99	39	foodImage.37	FOODEEG_Images\0359.jpg	NY	Right	Yes	1.00261359999422	0	450697	252
882.326171875	1.00261359999422	decision	choicePhaseStart	2	99	39	foodImage.37	FOODEEG_Images\0359.jpg	NY	Right	Yes	1.00261359999422	0	451752	253
883.3203125	0	decision	response	2	99	39	foodImage.37	FOODEEG_Images\0359.jpg	NY	Right	Yes	1.00261359999422	0	452261	235
884.36328125	1	taste	trialStart	2	100	40	foodImage.113	FOODEEG_Images\0921.jpg	NY	Left	No	0.819265199999791	0	452795	251
885.404296875	2	taste	foodImageDisplay	2	100	40	foodImage.113	FOODEEG_Images\0921.jpg	NY	Left	No	0.819265199999791	0	453328	252
887.466796875	0.819265199999791	taste	choicePhaseStart	2	100	40	foodImage.113	FOODEEG_Images\0921.jpg	NY	Left	No	0.819265199999791	0	454384	253
888.279296875	0	taste	response	2	100	40	foodImage.113	FOODEEG_Images\0921.jpg	NY	Left	No	0.819265199999791	0	454800	234
889.322265625	1	health	trialStart	2	101	41	foodImage.11	FOODEEG_Images\0180.jpg	NY	Right	Yes	2.02919979998842	0	455334	251
890.365234375	2	health	foodImageDisplay	2	101	41	foodImage.11	FOODEEG_Images\0180.jpg	NY	Right	Yes	2.02919979998842	0	455868	252
892.427734375	2.02919979998842	health	choicePhaseStart	2	101	41	foodImage.11	FOODEEG_Images\0180.jpg	NY	Right	Yes	2.02919979998842	0	456924	253
894.447265625	0	health	response	2	101	41	foodImage.11	FOODEEG_Images\0180.jpg	NY	Right	Yes	2.02919979998842	0	457958	235
895.490234375	1	taste	trialStart	2	102	42	foodImage.81	FOODEEG_Images\0797.jpg	NY	Right	Yes	0.885551299987128	0	458492	251
896.548828125	2	taste	foodImageDisplay	2	102	42	foodImage.81	FOODEEG_Images\0797.jpg	NY	Right	Yes	0.885551299987128	0	459034	252
898.611328125	0.885551299987128	taste	choicePhaseStart	2	102	42	foodImage.81	FOODEEG_Images\0797.jpg	NY	Right	Yes	0.885551299987128	0	460090	253
899.48828125	0	taste	response	2	102	42	foodImage.81	FOODEEG_Images\0797.jpg	NY	Right	Yes	0.885551299987128	0	460539	235
900.529296875	1	taste	trialStart	2	103	43	foodImage.94	FOODEEG_Images\0902.jpg	NY	Left	No	0.78029479997349	0	461072	251
901.568359375	2	taste	foodImageDisplay	2	103	43	foodImage.94	FOODEEG_Images\0902.jpg	NY	Left	No	0.78029479997349	0	461604	252
903.63671875	0.78029479997349	taste	choicePhaseStart	2	103	43	foodImage.94	FOODEEG_Images\0902.jpg	NY	Left	No	0.78029479997349	0	462663	253
904.408203125	0	taste	response	2	103	43	foodImage.94	FOODEEG_Images\0902.jpg	NY	Left	No	0.78029479997349	0	463058	234
905.453125	1	health	trialStart	2	104	44	foodImage.30	FOODEEG_Images\0282.jpg	YN	Left	Yes	0.673109700001078	0	463593	251
906.49609375	2	health	foodImageDisplay	2	104	44	foodImage.30	FOODEEG_Images\0282.jpg	YN	Left	Yes	0.673109700001078	0	464127	252
908.560546875	0.673109700001078	health	choicePhaseStart	2	104	44	foodImage.30	FOODEEG_Images\0282.jpg	YN	Left	Yes	0.673109700001078	0	465184	253
909.22265625	0	health	response	2	104	44	foodImage.30	FOODEEG_Images\0282.jpg	YN	Left	Yes	0.673109700001078	0	465523	234
910.267578125	1	taste	trialStart	2	105	45	foodImage.18	FOODEEG_Images\0202.jpg	NY	Right	Yes	0.701127600012114	0	466058	251
911.32421875	2	taste	foodImageDisplay	2	105	45	foodImage.18	FOODEEG_Images\0202.jpg	NY	Right	Yes	0.701127600012114	0	466599	252
913.388671875	0.701127600012114	taste	choicePhaseStart	2	105	45	foodImage.18	FOODEEG_Images\0202.jpg	NY	Right	Yes	0.701127600012114	0	467656	253
914.080078125	0	taste	response	2	105	45	foodImage.18	FOODEEG_Images\0202.jpg	NY	Right	Yes	0.701127600012114	0	468010	235
915.123046875	1	taste	trialStart	2	106	46	foodImage.105	FOODEEG_Images\0913.jpg	NY	Left	No	0.71127030000207	0	468544	251
916.162109375	2	taste	foodImageDisplay	2	106	46	foodImage.105	FOODEEG_Images\0913.jpg	NY	Left	No	0.71127030000207	0	469076	252
918.224609375	0.71127030000207	taste	choicePhaseStart	2	106	46	foodImage.105	FOODEEG_Images\0913.jpg	NY	Left	No	0.71127030000207	0	470132	253
918.927734375	0	taste	response	2	106	46	foodImage.105	FOODEEG_Images\0913.jpg	NY	Left	No	0.71127030000207	0	470492	234
919.96875	1	taste	trialStart	2	107	47	foodImage.41	FOODEEG_Images\0409.jpg	NY	Left	No	0.730013699998381	0	471025	251
921.015625	2	taste	foodImageDisplay	2	107	47	foodImage.41	FOODEEG_Images\0409.jpg	NY	Left	No	0.730013699998381	0	471561	252
923.078125	0.730013699998381	taste	choicePhaseStart	2	107	47	foodImage.41	FOODEEG_Images\0409.jpg	NY	Left	No	0.730013699998381	0	472617	253
923.798828125	0	taste	response	2	107	47	foodImage.41	FOODEEG_Images\0409.jpg	NY	Left	No	0.730013699998381	0	472986	234
924.841796875	1	decision	trialStart	2	108	48	foodImage.23	FOODEEG_Images\0244.jpg	YN	Left	Yes	0.980437000020174	0	473520	251
925.884765625	2	decision	foodImageDisplay	2	108	48	foodImage.23	FOODEEG_Images\0244.jpg	YN	Left	Yes	0.980437000020174	0	474054	252
927.947265625	0.980437000020174	decision	choicePhaseStart	2	108	48	foodImage.23	FOODEEG_Images\0244.jpg	YN	Left	Yes	0.980437000020174	0	475110	253
928.91796875	0	decision	response	2	108	48	foodImage.23	FOODEEG_Images\0244.jpg	YN	Left	Yes	0.980437000020174	0	475607	234
929.966796875	1	decision	trialStart	2	109	49	foodImage.81	FOODEEG_Images\0797.jpg	NY	Right	Yes	1.00367779997759	0	476144	251
931.025390625	2	decision	foodImageDisplay	2	109	49	foodImage.81	FOODEEG_Images\0797.jpg	NY	Right	Yes	1.00367779997759	0	476686	252
933.091796875	1.00367779997759	decision	choicePhaseStart	2	109	49	foodImage.81	FOODEEG_Images\0797.jpg	NY	Right	Yes	1.00367779997759	0	477744	253
934.0859375	0	decision	response	2	109	49	foodImage.81	FOODEEG_Images\0797.jpg	NY	Right	Yes	1.00367779997759	0	478253	235
935.12890625	1	decision	trialStart	2	110	50	foodImage.120	FOODEEG_Images\0928.jpg	NY	Left	No	0.775692499999423	0	478787	251
936.166015625	2	decision	foodImageDisplay	2	110	50	foodImage.120	FOODEEG_Images\0928.jpg	NY	Left	No	0.775692499999423	0	479318	252
938.228515625	0.775692499999423	decision	choicePhaseStart	2	110	50	foodImage.120	FOODEEG_Images\0928.jpg	NY	Left	No	0.775692499999423	0	480374	253
938.998046875	0	decision	response	2	110	50	foodImage.120	FOODEEG_Images\0928.jpg	NY	Left	No	0.775692499999423	0	480768	234
940.041015625	1	decision	trialStart	2	111	51	foodImage.105	FOODEEG_Images\0913.jpg	NY	Left	No	0.826055499986978	0	481302	251
941.078125	2	decision	foodImageDisplay	2	111	51	foodImage.105	FOODEEG_Images\0913.jpg	NY	Left	No	0.826055499986978	0	481833	252
943.140625	0.826055499986978	decision	choicePhaseStart	2	111	51	foodImage.105	FOODEEG_Images\0913.jpg	NY	Left	No	0.826055499986978	0	482889	253
943.958984375	0	decision	response	2	111	51	foodImage.105	FOODEEG_Images\0913.jpg	NY	Left	No	0.826055499986978	0	483308	234
945	1	health	trialStart	2	112	52	foodImage.55	FOODEEG_Images\0567.jpg	NY	Left	No	2.28518269999768	0	483841	251
946.05859375	2	health	foodImageDisplay	2	112	52	foodImage.55	FOODEEG_Images\0567.jpg	NY	Left	No	2.28518269999768	0	484383	252
948.123046875	2.28518269999768	health	choicePhaseStart	2	112	52	foodImage.55	FOODEEG_Images\0567.jpg	NY	Left	No	2.28518269999768	0	485440	253
950.3984375	0	health	response	2	112	52	foodImage.55	FOODEEG_Images\0567.jpg	NY	Left	No	2.28518269999768	0	486605	234
951.439453125	1	decision	trialStart	2	113	53	foodImage.27	FOODEEG_Images\0263.jpg	YN	Left	Yes	0.845125100022415	0	487138	251
952.482421875	2	decision	foodImageDisplay	2	113	53	foodImage.27	FOODEEG_Images\0263.jpg	YN	Left	Yes	0.845125100022415	0	487672	252
954.544921875	0.845125100022415	decision	choicePhaseStart	2	113	53	foodImage.27	FOODEEG_Images\0263.jpg	YN	Left	Yes	0.845125100022415	0	488728	253
955.380859375	0	decision	response	2	113	53	foodImage.27	FOODEEG_Images\0263.jpg	YN	Left	Yes	0.845125100022415	0	489156	234
956.423828125	1	health	trialStart	2	114	54	foodImage.102	FOODEEG_Images\0910.jpg	YN	Right	No	1.53640620000078	0	489690	251
957.46875	2	health	foodImageDisplay	2	114	54	foodImage.102	FOODEEG_Images\0910.jpg	YN	Right	No	1.53640620000078	0	490225	252
959.533203125	1.53640620000078	health	choicePhaseStart	2	114	54	foodImage.102	FOODEEG_Images\0910.jpg	YN	Right	No	1.53640620000078	0	491282	253
961.060546875	0	health	response	2	114	54	foodImage.102	FOODEEG_Images\0910.jpg	YN	Right	No	1.53640620000078	0	492064	235
962.103515625	1	taste	trialStart	2	115	55	foodImage.78	FOODEEG_Images\0787.jpg	NY	Right	Yes	0.804858299990883	0	492598	251
963.146484375	2	taste	foodImageDisplay	2	115	55	foodImage.78	FOODEEG_Images\0787.jpg	NY	Right	Yes	0.804858299990883	0	493132	252
965.2109375	0.804858299990883	taste	choicePhaseStart	2	115	55	foodImage.78	FOODEEG_Images\0787.jpg	NY	Right	Yes	0.804858299990883	0	494189	253
966.005859375	0	taste	response	2	115	55	foodImage.78	FOODEEG_Images\0787.jpg	NY	Right	Yes	0.804858299990883	0	494596	235
967.048828125	1	taste	trialStart	2	116	56	foodImage.83	FOODEEG_Images\0827.jpg	NY	Right	Yes	0.82915539998794	0	495130	251
968.10546875	2	taste	foodImageDisplay	2	116	56	foodImage.83	FOODEEG_Images\0827.jpg	NY	Right	Yes	0.82915539998794	0	495671	252
970.169921875	0.82915539998794	taste	choicePhaseStart	2	116	56	foodImage.83	FOODEEG_Images\0827.jpg	NY	Right	Yes	0.82915539998794	0	496728	253
970.98828125	0	taste	response	2	116	56	foodImage.83	FOODEEG_Images\0827.jpg	NY	Right	Yes	0.82915539998794	0	497147	235
972.029296875	1	decision	trialStart	2	117	57	foodImage.94	FOODEEG_Images\0902.jpg	YN	Right	No	1.47441769999568	0	497680	251
973.08203125	2	decision	foodImageDisplay	2	117	57	foodImage.94	FOODEEG_Images\0902.jpg	YN	Right	No	1.47441769999568	0	498219	252
975.1484375	1.47441769999568	decision	choicePhaseStart	2	117	57	foodImage.94	FOODEEG_Images\0902.jpg	YN	Right	No	1.47441769999568	0	499277	253
976.61328125	0	decision	response	2	117	57	foodImage.94	FOODEEG_Images\0902.jpg	YN	Right	No	1.47441769999568	0	500027	235
977.658203125	1	decision	trialStart	2	118	58	foodImage.73	FOODEEG_Images\0717.jpg	YN	Left	Yes	0.661340199992992	0	500562	251
978.716796875	2	decision	foodImageDisplay	2	118	58	foodImage.73	FOODEEG_Images\0717.jpg	YN	Left	Yes	0.661340199992992	0	501104	252
980.78515625	0.661340199992992	decision	choicePhaseStart	2	118	58	foodImage.73	FOODEEG_Images\0717.jpg	YN	Left	Yes	0.661340199992992	0	502163	253
981.4375	0	decision	response	2	118	58	foodImage.73	FOODEEG_Images\0717.jpg	YN	Left	Yes	0.661340199992992	0	502497	234
982.478515625	1	health	trialStart	2	119	59	foodImage.16	FOODEEG_Images\0196.jpg	NY	Right	Yes	0.827987500000745	0	503030	251
983.5390625	2	health	foodImageDisplay	2	119	59	foodImage.16	FOODEEG_Images\0196.jpg	NY	Right	Yes	0.827987500000745	0	503573	252
985.6015625	0.827987500000745	health	choicePhaseStart	2	119	59	foodImage.16	FOODEEG_Images\0196.jpg	NY	Right	Yes	0.827987500000745	0	504629	253
986.419921875	0	health	response	2	119	59	foodImage.16	FOODEEG_Images\0196.jpg	NY	Right	Yes	0.827987500000745	0	505048	235
987.458984375	1	decision	trialStart	2	120	60	foodImage.108	FOODEEG_Images\0916.jpg	NY	Left	No	0.935761300002923	0	505580	251
988.501953125	2	decision	foodImageDisplay	2	120	60	foodImage.108	FOODEEG_Images\0916.jpg	NY	Left	No	0.935761300002923	0	506114	252
990.56640625	0.935761300002923	decision	choicePhaseStart	2	120	60	foodImage.108	FOODEEG_Images\0916.jpg	NY	Left	No	0.935761300002923	0	507171	253
991.4921875	0	decision	response	2	120	60	foodImage.108	FOODEEG_Images\0916.jpg	NY	Left	No	0.935761300002923	0	507645	234
993.53515625	1.287109375	n/a	blockEnd	n/a	n/a	n/a	n/a	n/a	n/a	n/a	n/a	n/a	n/a	508691	254
994.822265625	2	n/a	blockStart	3	n/a	n/a	n/a	n/a	n/a	n/a	n/a	n/a	n/a	509350	250
996.857421875	1	health	trialStart	3	121	1	foodImage.13	FOODEEG_Images\0183.jpg	NY	Left	No	0.930701300007058	0	510392	251
997.921875	2	health	foodImageDisplay	3	121	1	foodImage.13	FOODEEG_Images\0183.jpg	NY	Left	No	0.930701300007058	0	510937	252
999.986328125	0.930701300007058	health	choicePhaseStart	3	121	1	foodImage.13	FOODEEG_Images\0183.jpg	NY	Left	No	0.930701300007058	0	511994	253
1000.908203125	0	health	response	3	121	1	foodImage.13	FOODEEG_Images\0183.jpg	NY	Left	No	0.930701300007058	0	512466	234
1001.958984375	1	taste	trialStart	3	122	2	foodImage.118	FOODEEG_Images\0926.jpg	YN	Right	No	1.04140779998852	0	513004	251
1002.99609375	2	taste	foodImageDisplay	3	122	2	foodImage.118	FOODEEG_Images\0926.jpg	YN	Right	No	1.04140779998852	0	513535	252
1005.05859375	1.04140779998852	taste	choicePhaseStart	3	122	2	foodImage.118	FOODEEG_Images\0926.jpg	YN	Right	No	1.04140779998852	0	514591	253
1006.091796875	0	taste	response	3	122	2	foodImage.118	FOODEEG_Images\0926.jpg	YN	Right	No	1.04140779998852	0	515120	235
1007.1328125	1	decision	trialStart	3	123	3	foodImage.67	FOODEEG_Images\0679.jpg	YN	Right	No	1.04790850001154	0	515653	251
1008.21484375	2	decision	foodImageDisplay	3	123	3	foodImage.67	FOODEEG_Images\0679.jpg	YN	Right	No	1.04790850001154	0	516207	252
1010.27734375	1.04790850001154	decision	choicePhaseStart	3	123	3	foodImage.67	FOODEEG_Images\0679.jpg	YN	Right	No	1.04790850001154	0	517263	253
1011.314453125	0	decision	response	3	123	3	foodImage.67	FOODEEG_Images\0679.jpg	YN	Right	No	1.04790850001154	0	517794	235
1012.36328125	1	taste	trialStart	3	124	4	foodImage.110	FOODEEG_Images\0918.jpg	YN	Right	No	0.903911600005813	0	518331	251
1013.40234375	2	taste	foodImageDisplay	3	124	4	foodImage.110	FOODEEG_Images\0918.jpg	YN	Right	No	0.903911600005813	0	518863	252
1015.46875	0.903911600005813	taste	choicePhaseStart	3	124	4	foodImage.110	FOODEEG_Images\0918.jpg	YN	Right	No	0.903911600005813	0	519921	253
1016.36328125	0	taste	response	3	124	4	foodImage.110	FOODEEG_Images\0918.jpg	YN	Right	No	0.903911600005813	0	520379	235
1017.40625	1	health	trialStart	3	125	5	foodImage.100	FOODEEG_Images\0908.jpg	NY	Left	No	1.23849580000388	0	520913	251
1018.4453125	2	health	foodImageDisplay	3	125	5	foodImage.100	FOODEEG_Images\0908.jpg	NY	Left	No	1.23849580000388	0	521445	252
1020.5078125	1.23849580000388	health	choicePhaseStart	3	125	5	foodImage.100	FOODEEG_Images\0908.jpg	NY	Left	No	1.23849580000388	0	522501	253
1021.73828125	0	health	response	3	125	5	foodImage.100	FOODEEG_Images\0908.jpg	NY	Left	No	1.23849580000388	0	523131	234
1022.787109375	1	health	trialStart	3	126	6	foodImage.33	FOODEEG_Images\0329.jpg	NY	Left	No	0.823663699993631	0	523668	251
1023.828125	2	health	foodImageDisplay	3	126	6	foodImage.33	FOODEEG_Images\0329.jpg	NY	Left	No	0.823663699993631	0	524201	252
1025.892578125	0.823663699993631	health	choicePhaseStart	3	126	6	foodImage.33	FOODEEG_Images\0329.jpg	NY	Left	No	0.823663699993631	0	525258	253
1026.70703125	0	health	response	3	126	6	foodImage.33	FOODEEG_Images\0329.jpg	NY	Left	No	0.823663699993631	0	525675	234
1027.75	1	health	trialStart	3	127	7	foodImage.67	FOODEEG_Images\0679.jpg	YN	Right	No	1.46920170000521	0	526209	251
1028.8046875	2	health	foodImageDisplay	3	127	7	foodImage.67	FOODEEG_Images\0679.jpg	YN	Right	No	1.46920170000521	0	526749	252
1030.869140625	1.46920170000521	health	choicePhaseStart	3	127	7	foodImage.67	FOODEEG_Images\0679.jpg	YN	Right	No	1.46920170000521	0	527806	253
1032.330078125	0	health	response	3	127	7	foodImage.67	FOODEEG_Images\0679.jpg	YN	Right	No	1.46920170000521	0	528554	235
1033.373046875	1	taste	trialStart	3	128	8	foodImage.109	FOODEEG_Images\0917.jpg	YN	Right	No	1.05048510001507	0	529088	251
1034.41015625	2	taste	foodImageDisplay	3	128	8	foodImage.109	FOODEEG_Images\0917.jpg	YN	Right	No	1.05048510001507	0	529619	252
1036.478515625	1.05048510001507	taste	choicePhaseStart	3	128	8	foodImage.109	FOODEEG_Images\0917.jpg	YN	Right	No	1.05048510001507	0	530678	253
1037.521484375	0	taste	response	3	128	8	foodImage.109	FOODEEG_Images\0917.jpg	YN	Right	No	1.05048510001507	0	531212	235
1038.5703125	1	taste	trialStart	3	129	9	foodImage.79	FOODEEG_Images\0794.jpg	YN	Left	Yes	0.70933739998145	0	531749	251
1039.615234375	2	taste	foodImageDisplay	3	129	9	foodImage.79	FOODEEG_Images\0794.jpg	YN	Left	Yes	0.70933739998145	0	532284	252
1041.677734375	0.70933739998145	taste	choicePhaseStart	3	129	9	foodImage.79	FOODEEG_Images\0794.jpg	YN	Left	Yes	0.70933739998145	0	533340	253
1042.37890625	0	taste	response	3	129	9	foodImage.79	FOODEEG_Images\0794.jpg	YN	Left	Yes	0.70933739998145	0	533699	234
1043.419921875	1	decision	trialStart	3	130	10	foodImage.51	FOODEEG_Images\0536.jpg	YN	Left	Yes	1.25962249998702	0	534232	251
1044.46484375	2	decision	foodImageDisplay	3	130	10	foodImage.51	FOODEEG_Images\0536.jpg	YN	Left	Yes	1.25962249998702	0	534767	252
1046.533203125	1.25962249998702	decision	choicePhaseStart	3	130	10	foodImage.51	FOODEEG_Images\0536.jpg	YN	Left	Yes	1.25962249998702	0	535826	253
1047.78515625	0	decision	response	3	130	10	foodImage.51	FOODEEG_Images\0536.jpg	YN	Left	Yes	1.25962249998702	0	536467	234
1048.830078125	1	health	trialStart	3	131	11	foodImage.114	FOODEEG_Images\0922.jpg	NY	Left	No	1.81234930001665	0	537002	251
1049.869140625	2	health	foodImageDisplay	3	131	11	foodImage.114	FOODEEG_Images\0922.jpg	NY	Left	No	1.81234930001665	0	537534	252
1051.93359375	1.81234930001665	health	choicePhaseStart	3	131	11	foodImage.114	FOODEEG_Images\0922.jpg	NY	Left	No	1.81234930001665	0	538591	253
1053.73828125	0	health	response	3	131	11	foodImage.114	FOODEEG_Images\0922.jpg	NY	Left	No	1.81234930001665	0	539515	234
1054.78125	1	decision	trialStart	3	132	12	foodImage.35	FOODEEG_Images\0350.jpg	YN	Left	Yes	1.01343120000092	0	540049	251
1055.8203125	2	decision	foodImageDisplay	3	132	12	foodImage.35	FOODEEG_Images\0350.jpg	YN	Left	Yes	1.01343120000092	0	540581	252
1057.8828125	1.01343120000092	decision	choicePhaseStart	3	132	12	foodImage.35	FOODEEG_Images\0350.jpg	YN	Left	Yes	1.01343120000092	0	541637	253
1058.888671875	0	decision	response	3	132	12	foodImage.35	FOODEEG_Images\0350.jpg	YN	Left	Yes	1.01343120000092	0	542152	234
1059.9375	1	decision	trialStart	3	133	13	foodImage.14	FOODEEG_Images\0188.jpg	YN	Left	Yes	1.26261140001589	0	542689	251
1060.994140625	2	decision	foodImageDisplay	3	133	13	foodImage.14	FOODEEG_Images\0188.jpg	YN	Left	Yes	1.26261140001589	0	543230	252
1063.060546875	1.26261140001589	decision	choicePhaseStart	3	133	13	foodImage.14	FOODEEG_Images\0188.jpg	YN	Left	Yes	1.26261140001589	0	544288	253
1064.3125	0	decision	response	3	133	13	foodImage.14	FOODEEG_Images\0188.jpg	YN	Left	Yes	1.26261140001589	0	544929	234
1065.35546875	1	decision	trialStart	3	134	14	foodImage.48	FOODEEG_Images\0494.jpg	YN	Left	Yes	0.669713700015564	0	545463	251
1066.396484375	2	decision	foodImageDisplay	3	134	14	foodImage.48	FOODEEG_Images\0494.jpg	YN	Left	Yes	0.669713700015564	0	545996	252
1068.4609375	0.669713700015564	decision	choicePhaseStart	3	134	14	foodImage.48	FOODEEG_Images\0494.jpg	YN	Left	Yes	0.669713700015564	0	547053	253
1069.12109375	0	decision	response	3	134	14	foodImage.48	FOODEEG_Images\0494.jpg	YN	Left	Yes	0.669713700015564	0	547391	234
1070.1796875	1	decision	trialStart	3	135	15	foodImage.65	FOODEEG_Images\0658.jpg	YN	Left	Yes	0.631426700012526	0	547933	251
1071.228515625	2	decision	foodImageDisplay	3	135	15	foodImage.65	FOODEEG_Images\0658.jpg	YN	Left	Yes	0.631426700012526	0	548470	252
1073.298828125	0.631426700012526	decision	choicePhaseStart	3	135	15	foodImage.65	FOODEEG_Images\0658.jpg	YN	Left	Yes	0.631426700012526	0	549530	253
1073.921875	0	decision	response	3	135	15	foodImage.65	FOODEEG_Images\0658.jpg	YN	Left	Yes	0.631426700012526	0	549849	234
1074.962890625	1	taste	trialStart	3	136	16	foodImage.54	FOODEEG_Images\0560.jpg	NY	Right	Yes	0.861151099990821	0	550382	251
1076.01953125	2	taste	foodImageDisplay	3	136	16	foodImage.54	FOODEEG_Images\0560.jpg	NY	Right	Yes	0.861151099990821	0	550923	252
1078.083984375	0.861151099990821	taste	choicePhaseStart	3	136	16	foodImage.54	FOODEEG_Images\0560.jpg	NY	Right	Yes	0.861151099990821	0	551980	253
1078.935546875	0	taste	response	3	136	16	foodImage.54	FOODEEG_Images\0560.jpg	NY	Right	Yes	0.861151099990821	0	552416	235
1079.98046875	1	decision	trialStart	3	137	17	foodImage.99	FOODEEG_Images\0907.jpg	YN	Right	No	0.749133999983314	0	552951	251
1081.03515625	2	decision	foodImageDisplay	3	137	17	foodImage.99	FOODEEG_Images\0907.jpg	YN	Right	No	0.749133999983314	0	553491	252
1083.09765625	0.749133999983314	decision	choicePhaseStart	3	137	17	foodImage.99	FOODEEG_Images\0907.jpg	YN	Right	No	0.749133999983314	0	554547	253
1083.83984375	0	decision	response	3	137	17	foodImage.99	FOODEEG_Images\0907.jpg	YN	Right	No	0.749133999983314	0	554927	235
1084.8828125	1	decision	trialStart	3	138	18	foodImage.10	FOODEEG_Images\0145.jpg	YN	Left	Yes	0.642644400009885	0	555461	251
1085.943359375	2	decision	foodImageDisplay	3	138	18	foodImage.10	FOODEEG_Images\0145.jpg	YN	Left	Yes	0.642644400009885	0	556004	252
1088.01171875	0.642644400009885	decision	choicePhaseStart	3	138	18	foodImage.10	FOODEEG_Images\0145.jpg	YN	Left	Yes	0.642644400009885	0	557063	253
1088.6484375	0	decision	response	3	138	18	foodImage.10	FOODEEG_Images\0145.jpg	YN	Left	Yes	0.642644400009885	0	557389	234
1089.6875	1	decision	trialStart	3	139	19	foodImage.53	FOODEEG_Images\0547.jpg	NY	Right	Yes	0.761231700016651	0	557921	251
1090.74609375	2	decision	foodImageDisplay	3	139	19	foodImage.53	FOODEEG_Images\0547.jpg	NY	Right	Yes	0.761231700016651	0	558463	252
1092.80859375	0.761231700016651	decision	choicePhaseStart	3	139	19	foodImage.53	FOODEEG_Images\0547.jpg	NY	Right	Yes	0.761231700016651	0	559519	253
1093.560546875	0	decision	response	3	139	19	foodImage.53	FOODEEG_Images\0547.jpg	NY	Right	Yes	0.761231700016651	0	559904	235
1094.6015625	1	decision	trialStart	3	140	20	foodImage.90	FOODEEG_Images\0890.jpg	NY	Right	Yes	1.29282269999385	0	560437	251
1095.662109375	2	decision	foodImageDisplay	3	140	20	foodImage.90	FOODEEG_Images\0890.jpg	NY	Right	Yes	1.29282269999385	0	560980	252
1097.724609375	1.29282269999385	decision	choicePhaseStart	3	140	20	foodImage.90	FOODEEG_Images\0890.jpg	NY	Right	Yes	1.29282269999385	0	562036	253
1099.0078125	0	decision	response	3	140	20	foodImage.90	FOODEEG_Images\0890.jpg	NY	Right	Yes	1.29282269999385	0	562693	235
1100.05078125	1	health	trialStart	3	141	21	foodImage.91	FOODEEG_Images\0896.jpg	NY	Right	Yes	1.62424370000372	0	563227	251
1101.10546875	2	health	foodImageDisplay	3	141	21	foodImage.91	FOODEEG_Images\0896.jpg	NY	Right	Yes	1.62424370000372	0	563767	252
1103.16796875	1.62424370000372	health	choicePhaseStart	3	141	21	foodImage.91	FOODEEG_Images\0896.jpg	NY	Right	Yes	1.62424370000372	0	564823	253
1104.783203125	0	health	response	3	141	21	foodImage.91	FOODEEG_Images\0896.jpg	NY	Right	Yes	1.62424370000372	0	565650	235
1105.826171875	1	taste	trialStart	3	142	22	foodImage.12	FOODEEG_Images\0181.jpg	NY	Left	No	1.06149890000233	0	566184	251
1106.869140625	2	taste	foodImageDisplay	3	142	22	foodImage.12	FOODEEG_Images\0181.jpg	NY	Left	No	1.06149890000233	0	566718	252
1108.931640625	1.06149890000233	taste	choicePhaseStart	3	142	22	foodImage.12	FOODEEG_Images\0181.jpg	NY	Left	No	1.06149890000233	0	567774	253
1109.984375	0	taste	response	3	142	22	foodImage.12	FOODEEG_Images\0181.jpg	NY	Left	No	1.06149890000233	0	568313	234
1111.02734375	1	health	trialStart	3	143	23	foodImage.37	FOODEEG_Images\0359.jpg	YN	Left	Yes	0.898990299989237	0	568847	251
1112.068359375	2	health	foodImageDisplay	3	143	23	foodImage.37	FOODEEG_Images\0359.jpg	YN	Left	Yes	0.898990299989237	0	569380	252
1114.130859375	0.898990299989237	health	choicePhaseStart	3	143	23	foodImage.37	FOODEEG_Images\0359.jpg	YN	Left	Yes	0.898990299989237	0	570436	253
1115.0234375	0	health	response	3	143	23	foodImage.37	FOODEEG_Images\0359.jpg	YN	Left	Yes	0.898990299989237	0	570893	234
1116.072265625	1	decision	trialStart	3	144	24	foodImage.75	FOODEEG_Images\0763.jpg	NY	Right	Yes	1.72517179997521	0	571430	251
1117.125	2	decision	foodImageDisplay	3	144	24	foodImage.75	FOODEEG_Images\0763.jpg	NY	Right	Yes	1.72517179997521	0	571969	252
1119.1875	1.72517179997521	decision	choicePhaseStart	3	144	24	foodImage.75	FOODEEG_Images\0763.jpg	NY	Right	Yes	1.72517179997521	0	573025	253
1120.90234375	0	decision	response	3	144	24	foodImage.75	FOODEEG_Images\0763.jpg	NY	Right	Yes	1.72517179997521	0	573903	235
1121.94921875	1	decision	trialStart	3	145	25	foodImage.85	FOODEEG_Images\0841.jpg	YN	Left	Yes	0.656525600003079	0	574439	251
1123.015625	2	decision	foodImageDisplay	3	145	25	foodImage.85	FOODEEG_Images\0841.jpg	YN	Left	Yes	0.656525600003079	0	574985	252
1125.080078125	0.656525600003079	decision	choicePhaseStart	3	145	25	foodImage.85	FOODEEG_Images\0841.jpg	YN	Left	Yes	0.656525600003079	0	576042	253
1125.7265625	0	decision	response	3	145	25	foodImage.85	FOODEEG_Images\0841.jpg	YN	Left	Yes	0.656525600003079	0	576373	234
1126.76953125	1	decision	trialStart	3	146	26	foodImage.88	FOODEEG_Images\0878.jpg	NY	Right	Yes	1.03828619999695	0	576907	251
1127.826171875	2	decision	foodImageDisplay	3	146	26	foodImage.88	FOODEEG_Images\0878.jpg	NY	Right	Yes	1.03828619999695	0	577448	252
1129.888671875	1.03828619999695	decision	choicePhaseStart	3	146	26	foodImage.88	FOODEEG_Images\0878.jpg	NY	Right	Yes	1.03828619999695	0	578504	253
1130.91796875	0	decision	response	3	146	26	foodImage.88	FOODEEG_Images\0878.jpg	NY	Right	Yes	1.03828619999695	0	579031	235
1131.962890625	1	taste	trialStart	3	147	27	foodImage.37	FOODEEG_Images\0359.jpg	NY	Right	Yes	1.42885399999795	0	579566	251
1133.00390625	2	taste	foodImageDisplay	3	147	27	foodImage.37	FOODEEG_Images\0359.jpg	NY	Right	Yes	1.42885399999795	0	580099	252
1135.068359375	1.42885399999795	taste	choicePhaseStart	3	147	27	foodImage.37	FOODEEG_Images\0359.jpg	NY	Right	Yes	1.42885399999795	0	581156	253
1136.486328125	0	taste	response	3	147	27	foodImage.37	FOODEEG_Images\0359.jpg	NY	Right	Yes	1.42885399999795	0	581882	235
1137.529296875	1	decision	trialStart	3	148	28	foodImage.6	FOODEEG_Images\0113.jpg	YN	Left	Yes	0.723137599998154	0	582416	251
1138.572265625	2	decision	foodImageDisplay	3	148	28	foodImage.6	FOODEEG_Images\0113.jpg	YN	Left	Yes	0.723137599998154	0	582950	252
1140.634765625	0.723137599998154	decision	choicePhaseStart	3	148	28	foodImage.6	FOODEEG_Images\0113.jpg	YN	Left	Yes	0.723137599998154	0	584006	253
1141.349609375	0	decision	response	3	148	28	foodImage.6	FOODEEG_Images\0113.jpg	YN	Left	Yes	0.723137599998154	0	584372	234
1142.392578125	1	health	trialStart	3	149	29	foodImage.54	FOODEEG_Images\0560.jpg	NY	Left	No	1.24563570000464	0	584906	251
1143.44921875	2	health	foodImageDisplay	3	149	29	foodImage.54	FOODEEG_Images\0560.jpg	NY	Left	No	1.24563570000464	0	585447	252
1145.513671875	1.24563570000464	health	choicePhaseStart	3	149	29	foodImage.54	FOODEEG_Images\0560.jpg	NY	Left	No	1.24563570000464	0	586504	253
1146.75	0	health	response	3	149	29	foodImage.54	FOODEEG_Images\0560.jpg	NY	Left	No	1.24563570000464	0	587137	234
1147.79296875	1	taste	trialStart	3	150	30	foodImage.3	FOODEEG_Images\0046.jpg	YN	Left	Yes	0.764527499995893	0	587671	251
1148.8359375	2	taste	foodImageDisplay	3	150	30	foodImage.3	FOODEEG_Images\0046.jpg	YN	Left	Yes	0.764527499995893	0	588205	252
1150.8984375	0.764527499995893	taste	choicePhaseStart	3	150	30	foodImage.3	FOODEEG_Images\0046.jpg	YN	Left	Yes	0.764527499995893	0	589261	253
1151.654296875	0	taste	response	3	150	30	foodImage.3	FOODEEG_Images\0046.jpg	YN	Left	Yes	0.764527499995893	0	589648	234
1152.697265625	1	taste	trialStart	3	151	31	foodImage.106	FOODEEG_Images\0914.jpg	YN	Left	Yes	1.0003128000244	0	590182	251
1153.736328125	2	taste	foodImageDisplay	3	151	31	foodImage.106	FOODEEG_Images\0914.jpg	YN	Left	Yes	1.0003128000244	0	590714	252
1155.798828125	1.0003128000244	taste	choicePhaseStart	3	151	31	foodImage.106	FOODEEG_Images\0914.jpg	YN	Left	Yes	1.0003128000244	0	591770	253
1156.7890625	0	taste	response	3	151	31	foodImage.106	FOODEEG_Images\0914.jpg	YN	Left	Yes	1.0003128000244	0	592277	234
1157.83203125	1	decision	trialStart	3	152	32	foodImage.116	FOODEEG_Images\0924.jpg	YN	Right	No	0.711272799992003	0	592811	251
1158.873046875	2	decision	foodImageDisplay	3	152	32	foodImage.116	FOODEEG_Images\0924.jpg	YN	Right	No	0.711272799992003	0	593344	252
1160.935546875	0.711272799992003	decision	choicePhaseStart	3	152	32	foodImage.116	FOODEEG_Images\0924.jpg	YN	Right	No	0.711272799992003	0	594400	253
1161.63671875	0	decision	response	3	152	32	foodImage.116	FOODEEG_Images\0924.jpg	YN	Right	No	0.711272799992003	0	594759	235
1162.6796875	1	health	trialStart	3	153	33	foodImage.79	FOODEEG_Images\0794.jpg	YN	Left	Yes	1.14101200000732	0	595293	251
1163.72265625	2	health	foodImageDisplay	3	153	33	foodImage.79	FOODEEG_Images\0794.jpg	YN	Left	Yes	1.14101200000732	0	595827	252
1165.78515625	1.14101200000732	health	choicePhaseStart	3	153	33	foodImage.79	FOODEEG_Images\0794.jpg	YN	Left	Yes	1.14101200000732	0	596883	253
1166.91796875	0	health	response	3	153	33	foodImage.79	FOODEEG_Images\0794.jpg	YN	Left	Yes	1.14101200000732	0	597463	234
1167.96484375	1	health	trialStart	3	154	34	foodImage.12	FOODEEG_Images\0181.jpg	NY	Right	Yes	1.36622180000995	0	597999	251
1169.0078125	2	health	foodImageDisplay	3	154	34	foodImage.12	FOODEEG_Images\0181.jpg	NY	Right	Yes	1.36622180000995	0	598533	252
1171.072265625	1.36622180000995	health	choicePhaseStart	3	154	34	foodImage.12	FOODEEG_Images\0181.jpg	NY	Right	Yes	1.36622180000995	0	599590	253
1172.4296875	0	health	response	3	154	34	foodImage.12	FOODEEG_Images\0181.jpg	NY	Right	Yes	1.36622180000995	0	600285	235
1173.47265625	1	health	trialStart	3	155	35	foodImage.32	FOODEEG_Images\0319.jpg	YN	Right	No	1.98594990000129	0	600819	251
1174.515625	2	health	foodImageDisplay	3	155	35	foodImage.32	FOODEEG_Images\0319.jpg	YN	Right	No	1.98594990000129	0	601353	252
1176.580078125	1.98594990000129	health	choicePhaseStart	3	155	35	foodImage.32	FOODEEG_Images\0319.jpg	YN	Right	No	1.98594990000129	0	602410	253
1178.556640625	0	health	response	3	155	35	foodImage.32	FOODEEG_Images\0319.jpg	YN	Right	No	1.98594990000129	0	603422	235
1179.599609375	1	taste	trialStart	3	156	36	foodImage.65	FOODEEG_Images\0658.jpg	YN	Left	Yes	0.690032400016207	0	603956	251
1180.642578125	2	taste	foodImageDisplay	3	156	36	foodImage.65	FOODEEG_Images\0658.jpg	YN	Left	Yes	0.690032400016207	0	604490	252
1182.708984375	0.690032400016207	taste	choicePhaseStart	3	156	36	foodImage.65	FOODEEG_Images\0658.jpg	YN	Left	Yes	0.690032400016207	0	605548	253
1183.388671875	0	taste	response	3	156	36	foodImage.65	FOODEEG_Images\0658.jpg	YN	Left	Yes	0.690032400016207	0	605896	234
1184.4375	1	health	trialStart	3	157	37	foodImage.88	FOODEEG_Images\0878.jpg	YN	Right	No	0.867981499992311	0	606433	251
1185.490234375	2	health	foodImageDisplay	3	157	37	foodImage.88	FOODEEG_Images\0878.jpg	YN	Right	No	0.867981499992311	0	606972	252
1187.552734375	0.867981499992311	health	choicePhaseStart	3	157	37	foodImage.88	FOODEEG_Images\0878.jpg	YN	Right	No	0.867981499992311	0	608028	253
1188.412109375	0	health	response	3	157	37	foodImage.88	FOODEEG_Images\0878.jpg	YN	Right	No	0.867981499992311	0	608468	235
1189.482421875	1	decision	trialStart	3	158	38	foodImage.34	FOODEEG_Images\0339.jpg	NY	Right	Yes	0.871503300004406	0	609016	251
1190.54296875	2	decision	foodImageDisplay	3	158	38	foodImage.34	FOODEEG_Images\0339.jpg	NY	Right	Yes	0.871503300004406	0	609559	252
1192.60546875	0.871503300004406	decision	choicePhaseStart	3	158	38	foodImage.34	FOODEEG_Images\0339.jpg	NY	Right	Yes	0.871503300004406	0	610615	253
1193.46875	0	decision	response	3	158	38	foodImage.34	FOODEEG_Images\0339.jpg	NY	Right	Yes	0.871503300004406	0	611057	235
1194.509765625	1	decision	trialStart	3	159	39	foodImage.68	FOODEEG_Images\0685.jpg	NY	Right	Yes	0.726928199990653	0	611590	251
1195.583984375	2	decision	foodImageDisplay	3	159	39	foodImage.68	FOODEEG_Images\0685.jpg	NY	Right	Yes	0.726928199990653	0	612140	252
1197.646484375	0.726928199990653	decision	choicePhaseStart	3	159	39	foodImage.68	FOODEEG_Images\0685.jpg	NY	Right	Yes	0.726928199990653	0	613196	253
1198.36328125	0	decision	response	3	159	39	foodImage.68	FOODEEG_Images\0685.jpg	NY	Right	Yes	0.726928199990653	0	613563	235
1199.416015625	1	taste	trialStart	3	160	40	foodImage.19	FOODEEG_Images\0225.jpg	YN	Right	No	1.76394800000708	0	614102	251
1200.458984375	2	taste	foodImageDisplay	3	160	40	foodImage.19	FOODEEG_Images\0225.jpg	YN	Right	No	1.76394800000708	0	614636	252
1202.52734375	1.76394800000708	taste	choicePhaseStart	3	160	40	foodImage.19	FOODEEG_Images\0225.jpg	YN	Right	No	1.76394800000708	0	615695	253
1204.283203125	0	taste	response	3	160	40	foodImage.19	FOODEEG_Images\0225.jpg	YN	Right	No	1.76394800000708	0	616594	235
1205.326171875	1	taste	trialStart	3	161	41	foodImage.84	FOODEEG_Images\0830.jpg	YN	Left	Yes	0.784250600001542	0	617128	251
1206.388671875	2	taste	foodImageDisplay	3	161	41	foodImage.84	FOODEEG_Images\0830.jpg	YN	Left	Yes	0.784250600001542	0	617672	252
1208.451171875	0.784250600001542	taste	choicePhaseStart	3	161	41	foodImage.84	FOODEEG_Images\0830.jpg	YN	Left	Yes	0.784250600001542	0	618728	253
1209.228515625	0	taste	response	3	161	41	foodImage.84	FOODEEG_Images\0830.jpg	YN	Left	Yes	0.784250600001542	0	619126	234
1210.26953125	1	taste	trialStart	3	162	42	foodImage.59	FOODEEG_Images\0607.jpg	YN	Left	Yes	0.950928500009468	0	619659	251
1211.31640625	2	taste	foodImageDisplay	3	162	42	foodImage.59	FOODEEG_Images\0607.jpg	YN	Left	Yes	0.950928500009468	0	620195	252
1213.380859375	0.950928500009468	taste	choicePhaseStart	3	162	42	foodImage.59	FOODEEG_Images\0607.jpg	YN	Left	Yes	0.950928500009468	0	621252	253
1214.322265625	0	taste	response	3	162	42	foodImage.59	FOODEEG_Images\0607.jpg	YN	Left	Yes	0.950928500009468	0	621734	234
1215.369140625	1	health	trialStart	3	163	43	foodImage.7	FOODEEG_Images\0116.jpg	NY	Left	No	1.00970200001029	0	622270	251
1216.41015625	2	health	foodImageDisplay	3	163	43	foodImage.7	FOODEEG_Images\0116.jpg	NY	Left	No	1.00970200001029	0	622803	252
1218.474609375	1.00970200001029	health	choicePhaseStart	3	163	43	foodImage.7	FOODEEG_Images\0116.jpg	NY	Left	No	1.00970200001029	0	623860	253
1219.474609375	0	health	response	3	163	43	foodImage.7	FOODEEG_Images\0116.jpg	NY	Left	No	1.00970200001029	0	624372	234
1220.517578125	1	health	trialStart	3	164	44	foodImage.39	FOODEEG_Images\0367.jpg	YN	Right	No	1.25400590000208	0	624906	251
1221.55859375	2	health	foodImageDisplay	3	164	44	foodImage.39	FOODEEG_Images\0367.jpg	YN	Right	No	1.25400590000208	0	625439	252
1223.62109375	1.25400590000208	health	choicePhaseStart	3	164	44	foodImage.39	FOODEEG_Images\0367.jpg	YN	Right	No	1.25400590000208	0	626495	253
1224.8671875	0	health	response	3	164	44	foodImage.39	FOODEEG_Images\0367.jpg	YN	Right	No	1.25400590000208	0	627133	235
1225.912109375	1	health	trialStart	3	165	45	foodImage.14	FOODEEG_Images\0188.jpg	NY	Left	No	1.35552760001156	0	627668	251
1226.96875	2	health	foodImageDisplay	3	165	45	foodImage.14	FOODEEG_Images\0188.jpg	NY	Left	No	1.35552760001156	0	628209	252
1229.033203125	1.35552760001156	health	choicePhaseStart	3	165	45	foodImage.14	FOODEEG_Images\0188.jpg	NY	Left	No	1.35552760001156	0	629266	253
1230.37890625	0	health	response	3	165	45	foodImage.14	FOODEEG_Images\0188.jpg	NY	Left	No	1.35552760001156	0	629955	234
1231.419921875	1	decision	trialStart	3	166	46	foodImage.58	FOODEEG_Images\0605.jpg	YN	Left	Yes	1.2293107000005	0	630488	251
1232.478515625	2	decision	foodImageDisplay	3	166	46	foodImage.58	FOODEEG_Images\0605.jpg	YN	Left	Yes	1.2293107000005	0	631030	252
1234.54296875	1.2293107000005	decision	choicePhaseStart	3	166	46	foodImage.58	FOODEEG_Images\0605.jpg	YN	Left	Yes	1.2293107000005	0	632087	253
1235.76171875	0	decision	response	3	166	46	foodImage.58	FOODEEG_Images\0605.jpg	YN	Left	Yes	1.2293107000005	0	632711	234
1236.80859375	1	health	trialStart	3	167	47	foodImage.92	FOODEEG_Images\0900.jpg	NY	Left	No	0.986185599991586	0	633247	251
1237.84765625	2	health	foodImageDisplay	3	167	47	foodImage.92	FOODEEG_Images\0900.jpg	NY	Left	No	0.986185599991586	0	633779	252
1239.91015625	0.986185599991586	health	choicePhaseStart	3	167	47	foodImage.92	FOODEEG_Images\0900.jpg	NY	Left	No	0.986185599991586	0	634835	253
1240.890625	0	health	response	3	167	47	foodImage.92	FOODEEG_Images\0900.jpg	NY	Left	No	0.986185599991586	0	635337	234
1241.93359375	1	taste	trialStart	3	168	48	foodImage.96	FOODEEG_Images\0904.jpg	NY	Left	No	0.839241599984234	0	635871	251
1242.97265625	2	taste	foodImageDisplay	3	168	48	foodImage.96	FOODEEG_Images\0904.jpg	NY	Left	No	0.839241599984234	0	636403	252
1245.03515625	0.839241599984234	taste	choicePhaseStart	3	168	48	foodImage.96	FOODEEG_Images\0904.jpg	NY	Left	No	0.839241599984234	0	637459	253
1245.8671875	0	taste	response	3	168	48	foodImage.96	FOODEEG_Images\0904.jpg	NY	Left	No	0.839241599984234	0	637885	234
1246.91015625	1	decision	trialStart	3	169	49	foodImage.25	FOODEEG_Images\0261.jpg	NY	Right	Yes	0.957779699994717	0	638419	251
1247.951171875	2	decision	foodImageDisplay	3	169	49	foodImage.25	FOODEEG_Images\0261.jpg	NY	Right	Yes	0.957779699994717	0	638952	252
1250.021484375	0.957779699994717	decision	choicePhaseStart	3	169	49	foodImage.25	FOODEEG_Images\0261.jpg	NY	Right	Yes	0.957779699994717	0	640012	253
1250.970703125	0	decision	response	3	169	49	foodImage.25	FOODEEG_Images\0261.jpg	NY	Right	Yes	0.957779699994717	0	640498	235
1252.01953125	1	taste	trialStart	3	170	50	foodImage.47	FOODEEG_Images\0488.jpg	YN	Left	Yes	1.11844229997951	0	641035	251
1253.060546875	2	taste	foodImageDisplay	3	170	50	foodImage.47	FOODEEG_Images\0488.jpg	YN	Left	Yes	1.11844229997951	0	641568	252
1255.125	1.11844229997951	taste	choicePhaseStart	3	170	50	foodImage.47	FOODEEG_Images\0488.jpg	YN	Left	Yes	1.11844229997951	0	642625	253
1256.234375	0	taste	response	3	170	50	foodImage.47	FOODEEG_Images\0488.jpg	YN	Left	Yes	1.11844229997951	0	643193	234
1257.275390625	1	taste	trialStart	3	171	51	foodImage.45	FOODEEG_Images\0478.jpg	NY	Right	Yes	0.899556899996242	0	643726	251
1258.3359375	2	taste	foodImageDisplay	3	171	51	foodImage.45	FOODEEG_Images\0478.jpg	NY	Right	Yes	0.899556899996242	0	644269	252
1260.400390625	0.899556899996242	taste	choicePhaseStart	3	171	51	foodImage.45	FOODEEG_Images\0478.jpg	NY	Right	Yes	0.899556899996242	0	645326	253
1261.2890625	0	taste	response	3	171	51	foodImage.45	FOODEEG_Images\0478.jpg	NY	Right	Yes	0.899556899996242	0	645781	235
1262.337890625	1	taste	trialStart	3	172	52	foodImage.72	FOODEEG_Images\0714.jpg	YN	Right	No	1.1189545999805	0	646318	251
1263.3828125	2	taste	foodImageDisplay	3	172	52	foodImage.72	FOODEEG_Images\0714.jpg	YN	Right	No	1.1189545999805	0	646853	252
1265.453125	1.1189545999805	taste	choicePhaseStart	3	172	52	foodImage.72	FOODEEG_Images\0714.jpg	YN	Right	No	1.1189545999805	0	647913	253
1266.560546875	0	taste	response	3	172	52	foodImage.72	FOODEEG_Images\0714.jpg	YN	Right	No	1.1189545999805	0	648480	235
1267.607421875	1	health	trialStart	3	173	53	foodImage.4	FOODEEG_Images\0065.jpg	YN	Right	No	1.18416130001424	0	649016	251
1268.666015625	2	health	foodImageDisplay	3	173	53	foodImage.4	FOODEEG_Images\0065.jpg	YN	Right	No	1.18416130001424	0	649558	252
1270.73046875	1.18416130001424	health	choicePhaseStart	3	173	53	foodImage.4	FOODEEG_Images\0065.jpg	YN	Right	No	1.18416130001424	0	650615	253
1271.904296875	0	health	response	3	173	53	foodImage.4	FOODEEG_Images\0065.jpg	YN	Right	No	1.18416130001424	0	651216	235
1272.94921875	1	decision	trialStart	3	174	54	foodImage.11	FOODEEG_Images\0180.jpg	NY	Left	No	1.22192539999378	0	651751	251
1274.01171875	2	decision	foodImageDisplay	3	174	54	foodImage.11	FOODEEG_Images\0180.jpg	NY	Left	No	1.22192539999378	0	652295	252
1276.076171875	1.22192539999378	decision	choicePhaseStart	3	174	54	foodImage.11	FOODEEG_Images\0180.jpg	NY	Left	No	1.22192539999378	0	653352	253
1277.2890625	0	decision	response	3	174	54	foodImage.11	FOODEEG_Images\0180.jpg	NY	Left	No	1.22192539999378	0	653973	234
1278.33203125	1	taste	trialStart	3	175	55	foodImage.22	FOODEEG_Images\0236.jpg	YN	Left	Yes	0.732882499985863	0	654507	251
1279.373046875	2	taste	foodImageDisplay	3	175	55	foodImage.22	FOODEEG_Images\0236.jpg	YN	Left	Yes	0.732882499985863	0	655040	252
1281.4375	0.732882499985863	taste	choicePhaseStart	3	175	55	foodImage.22	FOODEEG_Images\0236.jpg	YN	Left	Yes	0.732882499985863	0	656097	253
1282.16015625	0	taste	response	3	175	55	foodImage.22	FOODEEG_Images\0236.jpg	YN	Left	Yes	0.732882499985863	0	656467	234
1283.203125	1	decision	trialStart	3	176	56	foodImage.106	FOODEEG_Images\0914.jpg	YN	Left	Yes	0.816199799999595	0	657001	251
1284.2421875	2	decision	foodImageDisplay	3	176	56	foodImage.106	FOODEEG_Images\0914.jpg	YN	Left	Yes	0.816199799999595	0	657533	252
1286.3046875	0.816199799999595	decision	choicePhaseStart	3	176	56	foodImage.106	FOODEEG_Images\0914.jpg	YN	Left	Yes	0.816199799999595	0	658589	253
1287.11328125	0	decision	response	3	176	56	foodImage.106	FOODEEG_Images\0914.jpg	YN	Left	Yes	0.816199799999595	0	659003	234
1288.15625	1	taste	trialStart	3	177	57	foodImage.115	FOODEEG_Images\0923.jpg	YN	Left	Yes	1.03207040001871	0	659537	251
1289.193359375	2	taste	foodImageDisplay	3	177	57	foodImage.115	FOODEEG_Images\0923.jpg	YN	Left	Yes	1.03207040001871	0	660068	252
1291.2578125	1.03207040001871	taste	choicePhaseStart	3	177	57	foodImage.115	FOODEEG_Images\0923.jpg	YN	Left	Yes	1.03207040001871	0	661125	253
1292.279296875	0	taste	response	3	177	57	foodImage.115	FOODEEG_Images\0923.jpg	YN	Left	Yes	1.03207040001871	0	661648	234
1293.322265625	1	decision	trialStart	3	178	58	foodImage.4	FOODEEG_Images\0065.jpg	YN	Left	Yes	0.98042069998337	0	662182	251
1294.3828125	2	decision	foodImageDisplay	3	178	58	foodImage.4	FOODEEG_Images\0065.jpg	YN	Left	Yes	0.98042069998337	0	662725	252
1296.4453125	0.98042069998337	decision	choicePhaseStart	3	178	58	foodImage.4	FOODEEG_Images\0065.jpg	YN	Left	Yes	0.98042069998337	0	663781	253
1297.416015625	0	decision	response	3	178	58	foodImage.4	FOODEEG_Images\0065.jpg	YN	Left	Yes	0.98042069998337	0	664278	234
1298.458984375	1	decision	trialStart	3	179	59	foodImage.82	FOODEEG_Images\0805.jpg	YN	Left	Yes	0.749565500009339	0	664812	251
1299.515625	2	decision	foodImageDisplay	3	179	59	foodImage.82	FOODEEG_Images\0805.jpg	YN	Left	Yes	0.749565500009339	0	665353	252
1301.580078125	0.749565500009339	decision	choicePhaseStart	3	179	59	foodImage.82	FOODEEG_Images\0805.jpg	YN	Left	Yes	0.749565500009339	0	666410	253
1302.3203125	0	decision	response	3	179	59	foodImage.82	FOODEEG_Images\0805.jpg	YN	Left	Yes	0.749565500009339	0	666789	234
1303.36328125	1	health	trialStart	3	180	60	foodImage.111	FOODEEG_Images\0919.jpg	NY	Left	No	1.76285929998267	0	667323	251
1304.40234375	2	health	foodImageDisplay	3	180	60	foodImage.111	FOODEEG_Images\0919.jpg	NY	Left	No	1.76285929998267	0	667855	252
1306.46875	1.76285929998267	health	choicePhaseStart	3	180	60	foodImage.111	FOODEEG_Images\0919.jpg	NY	Left	No	1.76285929998267	0	668913	253
1308.22265625	0	health	response	3	180	60	foodImage.111	FOODEEG_Images\0919.jpg	NY	Left	No	1.76285929998267	0	669811	234
1310.26953125	1.00390625	n/a	blockEnd	n/a	n/a	n/a	n/a	n/a	n/a	n/a	n/a	n/a	n/a	670859	254
1311.2734375	2	n/a	blockStart	4	n/a	n/a	n/a	n/a	n/a	n/a	n/a	n/a	n/a	671373	250
1313.3046875	1	health	trialStart	4	181	1	foodImage.113	FOODEEG_Images\0921.jpg	NY	Left	No	0.792855099978624	0	672413	251
1314.34375	2	health	foodImageDisplay	4	181	1	foodImage.113	FOODEEG_Images\0921.jpg	NY	Left	No	0.792855099978624	0	672945	252
1316.408203125	0.792855099978624	health	choicePhaseStart	4	181	1	foodImage.113	FOODEEG_Images\0921.jpg	NY	Left	No	0.792855099978624	0	674002	253
1317.19140625	0	health	response	4	181	1	foodImage.113	FOODEEG_Images\0921.jpg	NY	Left	No	0.792855099978624	0	674403	234
1318.234375	1	taste	trialStart	4	182	2	foodImage.93	FOODEEG_Images\0901.jpg	NY	Left	No	0.815462600003229	0	674937	251
1319.2734375	2	taste	foodImageDisplay	4	182	2	foodImage.93	FOODEEG_Images\0901.jpg	NY	Left	No	0.815462600003229	0	675469	252
1321.337890625	0.815462600003229	taste	choicePhaseStart	4	182	2	foodImage.93	FOODEEG_Images\0901.jpg	NY	Left	No	0.815462600003229	0	676526	253
1322.142578125	0	taste	response	4	182	2	foodImage.93	FOODEEG_Images\0901.jpg	NY	Left	No	0.815462600003229	0	676938	234
1323.185546875	1	decision	trialStart	4	183	3	foodImage.24	FOODEEG_Images\0250.jpg	YN	Left	Yes	0.852864499989664	0	677472	251
1324.228515625	2	decision	foodImageDisplay	4	183	3	foodImage.24	FOODEEG_Images\0250.jpg	YN	Left	Yes	0.852864499989664	0	678006	252
1326.291015625	0.852864499989664	decision	choicePhaseStart	4	183	3	foodImage.24	FOODEEG_Images\0250.jpg	YN	Left	Yes	0.852864499989664	0	679062	253
1327.134765625	0	decision	response	4	183	3	foodImage.24	FOODEEG_Images\0250.jpg	YN	Left	Yes	0.852864499989664	0	679494	234
1328.1796875	1	health	trialStart	4	184	4	foodImage.48	FOODEEG_Images\0494.jpg	YN	Left	Yes	1.7360117000062	0	680029	251
1329.22265625	2	health	foodImageDisplay	4	184	4	foodImage.48	FOODEEG_Images\0494.jpg	YN	Left	Yes	1.7360117000062	0	680563	252
1331.287109375	1.7360117000062	health	choicePhaseStart	4	184	4	foodImage.48	FOODEEG_Images\0494.jpg	YN	Left	Yes	1.7360117000062	0	681620	253
1333.015625	0	health	response	4	184	4	foodImage.48	FOODEEG_Images\0494.jpg	YN	Left	Yes	1.7360117000062	0	682505	234
1334.056640625	1	decision	trialStart	4	185	5	foodImage.46	FOODEEG_Images\0479.jpg	YN	Left	Yes	0.865185600006953	0	683038	251
1335.138671875	2	decision	foodImageDisplay	4	185	5	foodImage.46	FOODEEG_Images\0479.jpg	YN	Left	Yes	0.865185600006953	0	683592	252
1337.20703125	0.865185600006953	decision	choicePhaseStart	4	185	5	foodImage.46	FOODEEG_Images\0479.jpg	YN	Left	Yes	0.865185600006953	0	684651	253
1338.0625	0	decision	response	4	185	5	foodImage.46	FOODEEG_Images\0479.jpg	YN	Left	Yes	0.865185600006953	0	685089	234
1339.107421875	1	health	trialStart	4	186	6	foodImage.49	FOODEEG_Images\0515.jpg	YN	Right	No	0.88870229999884	0	685624	251
1340.150390625	2	health	foodImageDisplay	4	186	6	foodImage.49	FOODEEG_Images\0515.jpg	YN	Right	No	0.88870229999884	0	686158	252
1342.21484375	0.88870229999884	health	choicePhaseStart	4	186	6	foodImage.49	FOODEEG_Images\0515.jpg	YN	Right	No	0.88870229999884	0	687215	253
1343.09375	0	health	response	4	186	6	foodImage.49	FOODEEG_Images\0515.jpg	YN	Right	No	0.88870229999884	0	687665	235
1344.146484375	1	taste	trialStart	4	187	7	foodImage.2	FOODEEG_Images\0028.jpg	YN	Left	Yes	0.834357000014279	0	688204	251
1345.189453125	2	taste	foodImageDisplay	4	187	7	foodImage.2	FOODEEG_Images\0028.jpg	YN	Left	Yes	0.834357000014279	0	688738	252
1347.25390625	0.834357000014279	taste	choicePhaseStart	4	187	7	foodImage.2	FOODEEG_Images\0028.jpg	YN	Left	Yes	0.834357000014279	0	689795	253
1348.078125	0	taste	response	4	187	7	foodImage.2	FOODEEG_Images\0028.jpg	YN	Left	Yes	0.834357000014279	0	690217	234
1349.12890625	1	decision	trialStart	4	188	8	foodImage.98	FOODEEG_Images\0906.jpg	YN	Right	No	0.807413500006078	0	690755	251
1350.16796875	2	decision	foodImageDisplay	4	188	8	foodImage.98	FOODEEG_Images\0906.jpg	YN	Right	No	0.807413500006078	0	691287	252
1352.23046875	0.807413500006078	decision	choicePhaseStart	4	188	8	foodImage.98	FOODEEG_Images\0906.jpg	YN	Right	No	0.807413500006078	0	692343	253
1353.029296875	0	decision	response	4	188	8	foodImage.98	FOODEEG_Images\0906.jpg	YN	Right	No	0.807413500006078	0	692752	235
1354.072265625	1	decision	trialStart	4	189	9	foodImage.29	FOODEEG_Images\0278.jpg	YN	Right	No	0.836558300012257	0	693286	251
1355.115234375	2	decision	foodImageDisplay	4	189	9	foodImage.29	FOODEEG_Images\0278.jpg	YN	Right	No	0.836558300012257	0	693820	252
1357.177734375	0.836558300012257	decision	choicePhaseStart	4	189	9	foodImage.29	FOODEEG_Images\0278.jpg	YN	Right	No	0.836558300012257	0	694876	253
1358.005859375	0	decision	response	4	189	9	foodImage.29	FOODEEG_Images\0278.jpg	YN	Right	No	0.836558300012257	0	695300	235
1359.048828125	1	taste	trialStart	4	190	10	foodImage.99	FOODEEG_Images\0907.jpg	YN	Right	No	1.77667320001638	0	695834	251
1360.0859375	2	taste	foodImageDisplay	4	190	10	foodImage.99	FOODEEG_Images\0907.jpg	YN	Right	No	1.77667320001638	0	696365	252
1362.150390625	1.77667320001638	taste	choicePhaseStart	4	190	10	foodImage.99	FOODEEG_Images\0907.jpg	YN	Right	No	1.77667320001638	0	697422	253
1363.91796875	0	taste	response	4	190	10	foodImage.99	FOODEEG_Images\0907.jpg	YN	Right	No	1.77667320001638	0	698327	235
1364.9609375	1	decision	trialStart	4	191	11	foodImage.39	FOODEEG_Images\0367.jpg	YN	Left	Yes	0.710166399978334	0	698861	251
1366.001953125	2	decision	foodImageDisplay	4	191	11	foodImage.39	FOODEEG_Images\0367.jpg	YN	Left	Yes	0.710166399978334	0	699394	252
1368.064453125	0.710166399978334	decision	choicePhaseStart	4	191	11	foodImage.39	FOODEEG_Images\0367.jpg	YN	Left	Yes	0.710166399978334	0	700450	253
1368.765625	0	decision	response	4	191	11	foodImage.39	FOODEEG_Images\0367.jpg	YN	Left	Yes	0.710166399978334	0	700809	234
1369.80859375	1	health	trialStart	4	192	12	foodImage.63	FOODEEG_Images\0645.jpg	NY	Left	No	1.01328810001723	0	701343	251
1370.849609375	2	health	foodImageDisplay	4	192	12	foodImage.63	FOODEEG_Images\0645.jpg	NY	Left	No	1.01328810001723	0	701876	252
1372.912109375	1.01328810001723	health	choicePhaseStart	4	192	12	foodImage.63	FOODEEG_Images\0645.jpg	NY	Left	No	1.01328810001723	0	702932	253
1373.91796875	0	health	response	4	192	12	foodImage.63	FOODEEG_Images\0645.jpg	NY	Left	No	1.01328810001723	0	703447	234
1374.958984375	1	taste	trialStart	4	193	13	foodImage.39	FOODEEG_Images\0367.jpg	NY	Right	Yes	1.432544100011	0	703980	251
1375.998046875	2	taste	foodImageDisplay	4	193	13	foodImage.39	FOODEEG_Images\0367.jpg	NY	Right	Yes	1.432544100011	0	704512	252
1378.060546875	1.432544100011	taste	choicePhaseStart	4	193	13	foodImage.39	FOODEEG_Images\0367.jpg	NY	Right	Yes	1.432544100011	0	705568	253
1379.484375	0	taste	response	4	193	13	foodImage.39	FOODEEG_Images\0367.jpg	NY	Right	Yes	1.432544100011	0	706297	235
1380.533203125	1	taste	trialStart	4	194	14	foodImage.40	FOODEEG_Images\0373.jpg	NY	Right	Yes	0.800518700008979	0	706834	251
1381.57421875	2	taste	foodImageDisplay	4	194	14	foodImage.40	FOODEEG_Images\0373.jpg	NY	Right	Yes	0.800518700008979	0	707367	252
1383.642578125	0.800518700008979	taste	choicePhaseStart	4	194	14	foodImage.40	FOODEEG_Images\0373.jpg	NY	Right	Yes	0.800518700008979	0	708426	253
