onset	duration	trial_type	event_type	block	trial_total	trial_in_block	food_image_code	food_image_path	button_position	resp_position	resp_choice	choice_rt	resp_too_slow	sample	trigger
377.380859375	2	n/a	blockStart	1	n/a	n/a	n/a	n/a	n/a	n/a	n/a	n/a	n/a	193220	250
379.41796875	1	decision	trialStart	1	1	1	foodImage.96	FOODEEG_Images\0904.jpg	NY	Left	No	1.17723020003177	0	194263	251
380.462890625	2	decision	foodImageDisplay	1	1	1	foodImage.96	FOODEEG_Images\0904.jpg	NY	Left	No	1.17723020003177	0	194798	252
382.53515625	1.17723020003177	decision	choicePhaseStart	1	1	1	foodImage.96	FOODEEG_Images\0904.jpg	NY	Left	No	1.17723020003177	0	195859	253
383.708984375	0	decision	response	1	1	1	foodImage.96	FOODEEG_Images\0904.jpg	NY	Left	No	1.17723020003177	0	196460	234
384.806640625	1	health	trialStart	1	2	2	foodImage.14	FOODEEG_Images\0188.jpg	YN	Left	Yes	0.614104300038889	0	197022	251
385.87109375	2	health	foodImageDisplay	1	2	2	foodImage.14	FOODEEG_Images\0188.jpg	YN	Left	Yes	0.614104300038889	0	197567	252
387.93359375	0.614104300038889	health	choicePhaseStart	1	2	2	foodImage.14	FOODEEG_Images\0188.jpg	YN	Left	Yes	0.614104300038889	0	198623	253
388.541015625	0	health	response	1	2	2	foodImage.14	FOODEEG_Images\0188.jpg	YN	Left	Yes	0.614104300038889	0	198934	234
389.595703125	1	decision	trialStart	1	3	3	foodImage.1	FOODEEG_Images\0004.jpg	YN	Left	Yes	0.804363299976103	0	199474	251
390.638671875	2	decision	foodImageDisplay	1	3	3	foodImage.1	FOODEEG_Images\0004.jpg	YN	Left	Yes	0.804363299976103	0	200008	252
392.708984375	0.804363299976103	decision	choicePhaseStart	1	3	3	foodImage.1	FOODEEG_Images\0004.jpg	YN	Left	Yes	0.804363299976103	0	201068	253
393.5078125	0	decision	response	1	3	3	foodImage.1	FOODEEG_Images\0004.jpg	YN	Left	Yes	0.804363299976103	0	201477	234
394.552734375	1	decision	trialStart	1	4	4	foodImage.27	FOODEEG_Images\0263.jpg	YN	Left	Yes	0.809489200008102	0	202012	251
395.619140625	2	decision	foodImageDisplay	1	4	4	foodImage.27	FOODEEG_Images\0263.jpg	YN	Left	Yes	0.809489200008102	0	202558	252
397.68359375	0.809489200008102	decision	choicePhaseStart	1	4	4	foodImage.27	FOODEEG_Images\0263.jpg	YN	Left	Yes	0.809489200008102	0	203615	253
398.484375	0	decision	response	1	4	4	foodImage.27	FOODEEG_Images\0263.jpg	YN	Left	Yes	0.809489200008102	0	204025	234
399.537109375	1	taste	trialStart	1	5	5	foodImage.110	FOODEEG_Images\0918.jpg	YN	Right	No	1.04113290004898	0	204564	251
400.599609375	2	taste	foodImageDisplay	1	5	5	foodImage.110	FOODEEG_Images\0918.jpg	YN	Right	No	1.04113290004898	0	205108	252
402.671875	1.04113290004898	taste	choicePhaseStart	1	5	5	foodImage.110	FOODEEG_Images\0918.jpg	YN	Right	No	1.04113290004898	0	206169	253
403.70703125	0	taste	response	1	5	5	foodImage.110	FOODEEG_Images\0918.jpg	YN	Right	No	1.04113290004898	0	206699	235
404.763671875	1	taste	trialStart	1	6	6	foodImage.8	FOODEEG_Images\0136.jpg	YN	Left	Yes	1.06000649998896	0	207240	251
405.806640625	2	taste	foodImageDisplay	1	6	6	foodImage.8	FOODEEG_Images\0136.jpg	YN	Left	Yes	1.06000649998896	0	207774	252
407.87109375	1.06000649998896	taste	choicePhaseStart	1	6	6	foodImage.8	FOODEEG_Images\0136.jpg	YN	Left	Yes	1.06000649998896	0	208831	253
408.923828125	0	taste	response	1	6	6	foodImage.8	FOODEEG_Images\0136.jpg	YN	Left	Yes	1.06000649998896	0	209370	234
409.96875	1	taste	trialStart	1	7	7	foodImage.69	FOODEEG_Images\0693.jpg	YN	Left	Yes	0.597344600013457	0	209905	251
411.01171875	2	taste	foodImageDisplay	1	7	7	foodImage.69	FOODEEG_Images\0693.jpg	YN	Left	Yes	0.597344600013457	0	210439	252
413.078125	0.597344600013457	taste	choicePhaseStart	1	7	7	foodImage.69	FOODEEG_Images\0693.jpg	YN	Left	Yes	0.597344600013457	0	211497	253
413.66796875	0	taste	response	1	7	7	foodImage.69	FOODEEG_Images\0693.jpg	YN	Left	Yes	0.597344600013457	0	211799	234
414.712890625	1	decision	trialStart	1	8	8	foodImage.36	FOODEEG_Images\0352.jpg	NY	Right	Yes	0.697081599966623	0	212334	251
415.76953125	2	decision	foodImageDisplay	1	8	8	foodImage.36	FOODEEG_Images\0352.jpg	NY	Right	Yes	0.697081599966623	0	212875	252
417.833984375	0.697081599966623	decision	choicePhaseStart	1	8	8	foodImage.36	FOODEEG_Images\0352.jpg	NY	Right	Yes	0.697081599966623	0	213932	253
418.5234375	0	decision	response	1	8	8	foodImage.36	FOODEEG_Images\0352.jpg	NY	Right	Yes	0.697081599966623	0	214285	235
419.56640625	1	health	trialStart	1	9	9	foodImage.93	FOODEEG_Images\0901.jpg	NY	Left	No	0.947984699974768	0	214819	251
420.603515625	2	health	foodImageDisplay	1	9	9	foodImage.93	FOODEEG_Images\0901.jpg	NY	Left	No	0.947984699974768	0	215350	252
422.66796875	0.947984699974768	health	choicePhaseStart	1	9	9	foodImage.93	FOODEEG_Images\0901.jpg	NY	Left	No	0.947984699974768	0	216407	253
423.611328125	0	health	response	1	9	9	foodImage.93	FOODEEG_Images\0901.jpg	NY	Left	No	0.947984699974768	0	216890	234
424.65234375	1	decision	trialStart	1	10	10	foodImage.18	FOODEEG_Images\0202.jpg	NY	Right	Yes	0.676441799965687	0	217423	251
425.716796875	2	decision	foodImageDisplay	1	10	10	foodImage.18	FOODEEG_Images\0202.jpg	NY	Right	Yes	0.676441799965687	0	217968	252
427.783203125	0.676441799965687	decision	choicePhaseStart	1	10	10	foodImage.18	FOODEEG_Images\0202.jpg	NY	Right	Yes	0.676441799965687	0	219026	253
428.451171875	0	decision	response	1	10	10	foodImage.18	FOODEEG_Images\0202.jpg	NY	Right	Yes	0.676441799965687	0	219368	235
429.494140625	1	decision	trialStart	1	11	11	foodImage.69	FOODEEG_Images\0693.jpg	YN	Left	Yes	0.656626400072128	0	219902	251
430.5390625	2	decision	foodImageDisplay	1	11	11	foodImage.69	FOODEEG_Images\0693.jpg	YN	Left	Yes	0.656626400072128	0	220437	252
432.609375	0.656626400072128	decision	choicePhaseStart	1	11	11	foodImage.69	FOODEEG_Images\0693.jpg	YN	Left	Yes	0.656626400072128	0	221497	253
433.2578125	0	decision	response	1	11	11	foodImage.69	FOODEEG_Images\0693.jpg	YN	Left	Yes	0.656626400072128	0	221829	234
434.298828125	1	decision	trialStart	1	12	12	foodImage.100	FOODEEG_Images\0908.jpg	YN	Right	No	0.736959400004707	0	222362	251
435.337890625	2	decision	foodImageDisplay	1	12	12	foodImage.100	FOODEEG_Images\0908.jpg	YN	Right	No	0.736959400004707	0	222894	252
437.40234375	0.736959400004707	decision	choicePhaseStart	1	12	12	foodImage.100	FOODEEG_Images\0908.jpg	YN	Right	No	0.736959400004707	0	223951	253
438.130859375	0	decision	response	1	12	12	foodImage.100	FOODEEG_Images\0908.jpg	YN	Right	No	0.736959400004707	0	224324	235
439.1796875	1	decision	trialStart	1	13	13	foodImage.17	FOODEEG_Images\0199.jpg	NY	Right	Yes	0.55565039999783	0	224861	251
440.22265625	2	decision	foodImageDisplay	1	13	13	foodImage.17	FOODEEG_Images\0199.jpg	NY	Right	Yes	0.55565039999783	0	225395	252
442.28515625	0.55565039999783	decision	choicePhaseStart	1	13	13	foodImage.17	FOODEEG_Images\0199.jpg	NY	Right	Yes	0.55565039999783	0	226451	253
442.8359375	0	decision	response	1	13	13	foodImage.17	FOODEEG_Images\0199.jpg	NY	Right	Yes	0.55565039999783	0	226733	235
443.876953125	1	decision	trialStart	1	14	14	foodImage.66	FOODEEG_Images\0676.jpg	NY	Right	Yes	0.468917199992575	0	227266	251
444.91796875	2	decision	foodImageDisplay	1	14	14	foodImage.66	FOODEEG_Images\0676.jpg	NY	Right	Yes	0.468917199992575	0	227799	252
446.982421875	0.468917199992575	decision	choicePhaseStart	1	14	14	foodImage.66	FOODEEG_Images\0676.jpg	NY	Right	Yes	0.468917199992575	0	228856	253
447.44140625	0	decision	response	1	14	14	foodImage.66	FOODEEG_Images\0676.jpg	NY	Right	Yes	0.468917199992575	0	229091	235
448.486328125	1	decision	trialStart	1	15	15	foodImage.107	FOODEEG_Images\0915.jpg	YN	Right	No	0.662425799993798	0	229626	251
449.525390625	2	decision	foodImageDisplay	1	15	15	foodImage.107	FOODEEG_Images\0915.jpg	YN	Right	No	0.662425799993798	0	230158	252
451.587890625	0.662425799993798	decision	choicePhaseStart	1	15	15	foodImage.107	FOODEEG_Images\0915.jpg	YN	Right	No	0.662425799993798	0	231214	253
452.2421875	0	decision	response	1	15	15	foodImage.107	FOODEEG_Images\0915.jpg	YN	Right	No	0.662425799993798	0	231549	235
453.29296875	1	decision	trialStart	1	16	16	foodImage.23	FOODEEG_Images\0244.jpg	YN	Left	Yes	0.492923500016332	0	232087	251
454.333984375	2	decision	foodImageDisplay	1	16	16	foodImage.23	FOODEEG_Images\0244.jpg	YN	Left	Yes	0.492923500016332	0	232620	252
456.404296875	0.492923500016332	decision	choicePhaseStart	1	16	16	foodImage.23	FOODEEG_Images\0244.jpg	YN	Left	Yes	0.492923500016332	0	233680	253
456.890625	0	decision	response	1	16	16	foodImage.23	FOODEEG_Images\0244.jpg	YN	Left	Yes	0.492923500016332	0	233929	234
457.931640625	1	decision	trialStart	1	17	17	foodImage.41	FOODEEG_Images\0409.jpg	NY	Right	Yes	0.778579800040461	0	234462	251
458.986328125	2	decision	foodImageDisplay	1	17	17	foodImage.41	FOODEEG_Images\0409.jpg	NY	Right	Yes	0.778579800040461	0	235002	252
461.0546875	0.778579800040461	decision	choicePhaseStart	1	17	17	foodImage.41	FOODEEG_Images\0409.jpg	NY	Right	Yes	0.778579800040461	0	236061	253
461.826171875	0	decision	response	1	17	17	foodImage.41	FOODEEG_Images\0409.jpg	NY	Right	Yes	0.778579800040461	0	236456	235
462.869140625	1	health	trialStart	1	18	18	foodImage.115	FOODEEG_Images\0923.jpg	YN	Right	No	0.832133700023405	0	236990	251
463.90625	2	health	foodImageDisplay	1	18	18	foodImage.115	FOODEEG_Images\0923.jpg	YN	Right	No	0.832133700023405	0	237521	252
465.970703125	0.832133700023405	health	choicePhaseStart	1	18	18	foodImage.115	FOODEEG_Images\0923.jpg	YN	Right	No	0.832133700023405	0	238578	253
466.79296875	0	health	response	1	18	18	foodImage.115	FOODEEG_Images\0923.jpg	YN	Right	No	0.832133700023405	0	238999	235
467.837890625	1	health	trialStart	1	19	19	foodImage.41	FOODEEG_Images\0409.jpg	YN	Left	Yes	0.563044000067748	0	239534	251
468.88671875	2	health	foodImageDisplay	1	19	19	foodImage.41	FOODEEG_Images\0409.jpg	YN	Left	Yes	0.563044000067748	0	240071	252
470.951171875	0.563044000067748	health	choicePhaseStart	1	19	19	foodImage.41	FOODEEG_Images\0409.jpg	YN	Left	Yes	0.563044000067748	0	241128	253
471.505859375	0	health	response	1	19	19	foodImage.41	FOODEEG_Images\0409.jpg	YN	Left	Yes	0.563044000067748	0	241412	234
472.548828125	1	taste	trialStart	1	20	20	foodImage.30	FOODEEG_Images\0282.jpg	YN	Left	Yes	0.531540399999358	0	241946	251
473.59765625	2	taste	foodImageDisplay	1	20	20	foodImage.30	FOODEEG_Images\0282.jpg	YN	Left	Yes	0.531540399999358	0	242483	252
475.66796875	0.531540399999358	taste	choicePhaseStart	1	20	20	foodImage.30	FOODEEG_Images\0282.jpg	YN	Left	Yes	0.531540399999358	0	243543	253
476.193359375	0	taste	response	1	20	20	foodImage.30	FOODEEG_Images\0282.jpg	YN	Left	Yes	0.531540399999358	0	243812	234
477.236328125	1	decision	trialStart	1	21	21	foodImage.26	FOODEEG_Images\0262.jpg	NY	Left	No	0.58763349999208	0	244346	251
478.298828125	2	decision	foodImageDisplay	1	21	21	foodImage.26	FOODEEG_Images\0262.jpg	NY	Left	No	0.58763349999208	0	244890	252
480.36328125	0.58763349999208	decision	choicePhaseStart	1	21	21	foodImage.26	FOODEEG_Images\0262.jpg	NY	Left	No	0.58763349999208	0	245947	253
480.9453125	0	decision	response	1	21	21	foodImage.26	FOODEEG_Images\0262.jpg	NY	Left	No	0.58763349999208	0	246245	234
481.98828125	1	health	trialStart	1	22	22	foodImage.56	FOODEEG_Images\0586.jpg	NY	Right	Yes	0.964425200014375	0	246779	251
483.029296875	2	health	foodImageDisplay	1	22	22	foodImage.56	FOODEEG_Images\0586.jpg	NY	Right	Yes	0.964425200014375	0	247312	252
485.09375	0.964425200014375	health	choicePhaseStart	1	22	22	foodImage.56	FOODEEG_Images\0586.jpg	NY	Right	Yes	0.964425200014375	0	248369	253
486.048828125	0	health	response	1	22	22	foodImage.56	FOODEEG_Images\0586.jpg	NY	Right	Yes	0.964425200014375	0	248858	235
487.08984375	1	taste	trialStart	1	23	23	foodImage.48	FOODEEG_Images\0494.jpg	YN	Left	Yes	0.640730099985376	0	249391	251
488.1328125	2	taste	foodImageDisplay	1	23	23	foodImage.48	FOODEEG_Images\0494.jpg	YN	Left	Yes	0.640730099985376	0	249925	252
490.201171875	0.640730099985376	taste	choicePhaseStart	1	23	23	foodImage.48	FOODEEG_Images\0494.jpg	YN	Left	Yes	0.640730099985376	0	250984	253
490.83203125	0	taste	response	1	23	23	foodImage.48	FOODEEG_Images\0494.jpg	YN	Left	Yes	0.640730099985376	0	251307	234
491.8828125	1	taste	trialStart	1	24	24	foodImage.105	FOODEEG_Images\0913.jpg	YN	Right	No	0.738919299910776	0	251845	251
492.935546875	2	taste	foodImageDisplay	1	24	24	foodImage.105	FOODEEG_Images\0913.jpg	YN	Right	No	0.738919299910776	0	252384	252
495.005859375	0.738919299910776	taste	choicePhaseStart	1	24	24	foodImage.105	FOODEEG_Images\0913.jpg	YN	Right	No	0.738919299910776	0	253444	253
495.736328125	0	taste	response	1	24	24	foodImage.105	FOODEEG_Images\0913.jpg	YN	Right	No	0.738919299910776	0	253818	235
496.78515625	1	health	trialStart	1	25	25	foodImage.34	FOODEEG_Images\0339.jpg	YN	Right	No	1.29283759999089	0	254355	251
497.8671875	2	health	foodImageDisplay	1	25	25	foodImage.34	FOODEEG_Images\0339.jpg	YN	Right	No	1.29283759999089	0	254909	252
499.931640625	1.29283759999089	health	choicePhaseStart	1	25	25	foodImage.34	FOODEEG_Images\0339.jpg	YN	Right	No	1.29283759999089	0	255966	253
501.216796875	0	health	response	1	25	25	foodImage.34	FOODEEG_Images\0339.jpg	YN	Right	No	1.29283759999089	0	256624	235
502.2578125	1	decision	trialStart	1	26	26	foodImage.42	FOODEEG_Images\0438.jpg	NY	Right	Yes	1.04033760004677	0	257157	251
503.349609375	2	decision	foodImageDisplay	1	26	26	foodImage.42	FOODEEG_Images\0438.jpg	NY	Right	Yes	1.04033760004677	0	257716	252
505.4140625	1.04033760004677	decision	choicePhaseStart	1	26	26	foodImage.42	FOODEEG_Images\0438.jpg	NY	Right	Yes	1.04033760004677	0	258773	253
506.447265625	0	decision	response	1	26	26	foodImage.42	FOODEEG_Images\0438.jpg	NY	Right	Yes	1.04033760004677	0	259302	235
507.49609375	1	decision	trialStart	1	27	27	foodImage.55	FOODEEG_Images\0567.jpg	NY	Right	Yes	0.588367199990898	0	259839	251
508.5546875	2	decision	foodImageDisplay	1	27	27	foodImage.55	FOODEEG_Images\0567.jpg	NY	Right	Yes	0.588367199990898	0	260381	252
510.626953125	0.588367199990898	decision	choicePhaseStart	1	27	27	foodImage.55	FOODEEG_Images\0567.jpg	NY	Right	Yes	0.588367199990898	0	261442	253
511.20703125	0	decision	response	1	27	27	foodImage.55	FOODEEG_Images\0567.jpg	NY	Right	Yes	0.588367199990898	0	261739	235
512.251953125	1	decision	trialStart	1	28	28	foodImage.38	FOODEEG_Images\0365.jpg	YN	Left	Yes	0.600651000044309	0	262274	251
513.2890625	2	decision	foodImageDisplay	1	28	28	foodImage.38	FOODEEG_Images\0365.jpg	YN	Left	Yes	0.600651000044309	0	262805	252
515.353515625	0.600651000044309	decision	choicePhaseStart	1	28	28	foodImage.38	FOODEEG_Images\0365.jpg	YN	Left	Yes	0.600651000044309	0	263862	253
515.943359375	0	decision	response	1	28	28	foodImage.38	FOODEEG_Images\0365.jpg	YN	Left	Yes	0.600651000044309	0	264164	234
516.986328125	1	decision	trialStart	1	29	29	foodImage.4	FOODEEG_Images\0065.jpg	YN	Left	Yes	0.543074600049295	0	264698	251
518.04296875	2	decision	foodImageDisplay	1	29	29	foodImage.4	FOODEEG_Images\0065.jpg	YN	Left	Yes	0.543074600049295	0	265239	252
520.111328125	0.543074600049295	decision	choicePhaseStart	1	29	29	foodImage.4	FOODEEG_Images\0065.jpg	YN	Left	Yes	0.543074600049295	0	266298	253
520.6484375	0	decision	response	1	29	29	foodImage.4	FOODEEG_Images\0065.jpg	YN	Left	Yes	0.543074600049295	0	266573	234
521.693359375	1	health	trialStart	1	30	30	foodImage.29	FOODEEG_Images\0278.jpg	NY	Right	Yes	0.533436500001699	0	267108	251
522.73828125	2	health	foodImageDisplay	1	30	30	foodImage.29	FOODEEG_Images\0278.jpg	NY	Right	Yes	0.533436500001699	0	267643	252
524.80078125	0.533436500001699	health	choicePhaseStart	1	30	30	foodImage.29	FOODEEG_Images\0278.jpg	NY	Right	Yes	0.533436500001699	0	268699	253
525.328125	0	health	response	1	30	30	foodImage.29	FOODEEG_Images\0278.jpg	NY	Right	Yes	0.533436500001699	0	268969	235
526.369140625	1	health	trialStart	1	31	31	foodImage.74	FOODEEG_Images\0752.jpg	YN	Left	Yes	0.570666300016455	0	269502	251
527.4140625	2	health	foodImageDisplay	1	31	31	foodImage.74	FOODEEG_Images\0752.jpg	YN	Left	Yes	0.570666300016455	0	270037	252
529.4765625	0.570666300016455	health	choicePhaseStart	1	31	31	foodImage.74	FOODEEG_Images\0752.jpg	YN	Left	Yes	0.570666300016455	0	271093	253
530.0390625	0	health	response	1	31	31	foodImage.74	FOODEEG_Images\0752.jpg	YN	Left	Yes	0.570666300016455	0	271381	234
531.08203125	1	health	trialStart	1	32	32	foodImage.68	FOODEEG_Images\0685.jpg	NY	Right	Yes	0.560085000004619	0	271915	251
532.162109375	2	health	foodImageDisplay	1	32	32	foodImage.68	FOODEEG_Images\0685.jpg	NY	Right	Yes	0.560085000004619	0	272468	252
534.23046875	0.560085000004619	health	choicePhaseStart	1	32	32	foodImage.68	FOODEEG_Images\0685.jpg	NY	Right	Yes	0.560085000004619	0	273527	253
534.783203125	0	health	response	1	32	32	foodImage.68	FOODEEG_Images\0685.jpg	NY	Right	Yes	0.560085000004619	0	273810	235
535.826171875	1	taste	trialStart	1	33	33	foodImage.56	FOODEEG_Images\0586.jpg	YN	Right	No	0.71159770002123	0	274344	251
536.87109375	2	taste	foodImageDisplay	1	33	33	foodImage.56	FOODEEG_Images\0586.jpg	YN	Right	No	0.71159770002123	0	274879	252
538.93359375	0.71159770002123	taste	choicePhaseStart	1	33	33	foodImage.56	FOODEEG_Images\0586.jpg	YN	Right	No	0.71159770002123	0	275935	253
539.638671875	0	taste	response	1	33	33	foodImage.56	FOODEEG_Images\0586.jpg	YN	Right	No	0.71159770002123	0	276296	235
540.6875	1	decision	trialStart	1	34	34	foodImage.53	FOODEEG_Images\0547.jpg	YN	Left	Yes	0.542209299979731	0	276833	251
541.771484375	2	decision	foodImageDisplay	1	34	34	foodImage.53	FOODEEG_Images\0547.jpg	YN	Left	Yes	0.542209299979731	0	277388	252
543.833984375	0.542209299979731	decision	choicePhaseStart	1	34	34	foodImage.53	FOODEEG_Images\0547.jpg	YN	Left	Yes	0.542209299979731	0	278444	253
544.3671875	0	decision	response	1	34	34	foodImage.53	FOODEEG_Images\0547.jpg	YN	Left	Yes	0.542209299979731	0	278717	234
545.41015625	1	health	trialStart	1	35	35	foodImage.85	FOODEEG_Images\0841.jpg	NY	Right	Yes	0.543857200071216	0	279251	251
546.466796875	2	health	foodImageDisplay	1	35	35	foodImage.85	FOODEEG_Images\0841.jpg	NY	Right	Yes	0.543857200071216	0	279792	252
548.533203125	0.543857200071216	health	choicePhaseStart	1	35	35	foodImage.85	FOODEEG_Images\0841.jpg	NY	Right	Yes	0.543857200071216	0	280850	253
549.0703125	0	health	response	1	35	35	foodImage.85	FOODEEG_Images\0841.jpg	NY	Right	Yes	0.543857200071216	0	281125	235
550.1171875	1	taste	trialStart	1	36	36	foodImage.70	FOODEEG_Images\0705.jpg	YN	Left	Yes	0.466022600070573	0	281661	251
551.197265625	2	taste	foodImageDisplay	1	36	36	foodImage.70	FOODEEG_Images\0705.jpg	YN	Left	Yes	0.466022600070573	0	282214	252
553.26171875	0.466022600070573	taste	choicePhaseStart	1	36	36	foodImage.70	FOODEEG_Images\0705.jpg	YN	Left	Yes	0.466022600070573	0	283271	253
553.71875	0	taste	response	1	36	36	foodImage.70	FOODEEG_Images\0705.jpg	YN	Left	Yes	0.466022600070573	0	283505	234
554.759765625	1	decision	trialStart	1	37	37	foodImage.108	FOODEEG_Images\0916.jpg	NY	Left	No	0.609935199958272	0	284038	251
555.798828125	2	decision	foodImageDisplay	1	37	37	foodImage.108	FOODEEG_Images\0916.jpg	NY	Left	No	0.609935199958272	0	284570	252
557.861328125	0.609935199958272	decision	choicePhaseStart	1	37	37	foodImage.108	FOODEEG_Images\0916.jpg	NY	Left	No	0.609935199958272	0	285626	253
558.462890625	0	decision	response	1	37	37	foodImage.108	FOODEEG_Images\0916.jpg	NY	Left	No	0.609935199958272	0	285934	234
559.5078125	1	health	trialStart	1	38	38	foodImage.45	FOODEEG_Images\0478.jpg	NY	Right	Yes	0.436699499958195	0	286469	251
560.552734375	2	health	foodImageDisplay	1	38	38	foodImage.45	FOODEEG_Images\0478.jpg	NY	Right	Yes	0.436699499958195	0	287004	252
562.619140625	0.436699499958195	health	choicePhaseStart	1	38	38	foodImage.45	FOODEEG_Images\0478.jpg	NY	Right	Yes	0.436699499958195	0	288062	253
563.046875	0	health	response	1	38	38	foodImage.45	FOODEEG_Images\0478.jpg	NY	Right	Yes	0.436699499958195	0	288281	235
564.087890625	1	taste	trialStart	1	39	39	foodImage.116	FOODEEG_Images\0924.jpg	NY	Left	No	0.409713999950327	0	288814	251
565.126953125	2	taste	foodImageDisplay	1	39	39	foodImage.116	FOODEEG_Images\0924.jpg	NY	Left	No	0.409713999950327	0	289346	252
567.189453125	0.409713999950327	taste	choicePhaseStart	1	39	39	foodImage.116	FOODEEG_Images\0924.jpg	NY	Left	No	0.409713999950327	0	290402	253
567.58984375	0	taste	response	1	39	39	foodImage.116	FOODEEG_Images\0924.jpg	NY	Left	No	0.409713999950327	0	290607	234
568.630859375	1	taste	trialStart	1	40	40	foodImage.28	FOODEEG_Images\0273.jpg	NY	Left	No	0.528575900010765	0	291140	251
569.671875	2	taste	foodImageDisplay	1	40	40	foodImage.28	FOODEEG_Images\0273.jpg	NY	Left	No	0.528575900010765	0	291673	252
571.736328125	0.528575900010765	taste	choicePhaseStart	1	40	40	foodImage.28	FOODEEG_Images\0273.jpg	NY	Left	No	0.528575900010765	0	292730	253
572.25390625	0	taste	response	1	40	40	foodImage.28	FOODEEG_Images\0273.jpg	NY	Left	No	0.528575900010765	0	292995	234
573.296875	1	health	trialStart	1	41	41	foodImage.3	FOODEEG_Images\0046.jpg	NY	Right	Yes	0.794624999980442	0	293529	251
574.33984375	2	health	foodImageDisplay	1	41	41	foodImage.3	FOODEEG_Images\0046.jpg	NY	Right	Yes	0.794624999980442	0	294063	252
576.404296875	0.794624999980442	health	choicePhaseStart	1	41	41	foodImage.3	FOODEEG_Images\0046.jpg	NY	Right	Yes	0.794624999980442	0	295120	253
577.189453125	0	health	response	1	41	41	foodImage.3	FOODEEG_Images\0046.jpg	NY	Right	Yes	0.794624999980442	0	295522	235
578.232421875	1	decision	trialStart	1	42	42	foodImage.8	FOODEEG_Images\0136.jpg	YN	Right	No	0.686355800018646	0	296056	251
579.27734375	2	decision	foodImageDisplay	1	42	42	foodImage.8	FOODEEG_Images\0136.jpg	YN	Right	No	0.686355800018646	0	296591	252
581.34375	0.686355800018646	decision	choicePhaseStart	1	42	42	foodImage.8	FOODEEG_Images\0136.jpg	YN	Right	No	0.686355800018646	0	297649	253
582.021484375	0	decision	response	1	42	42	foodImage.8	FOODEEG_Images\0136.jpg	YN	Right	No	0.686355800018646	0	297996	235
583.064453125	1	taste	trialStart	1	43	43	foodImage.98	FOODEEG_Images\0906.jpg	NY	Left	No	0.659692600020207	0	298530	251
584.103515625	2	taste	foodImageDisplay	1	43	43	foodImage.98	FOODEEG_Images\0906.jpg	NY	Left	No	0.659692600020207	0	299062	252
586.171875	0.659692600020207	taste	choicePhaseStart	1	43	43	foodImage.98	FOODEEG_Images\0906.jpg	NY	Left	No	0.659692600020207	0	300121	253
586.822265625	0	taste	response	1	43	43	foodImage.98	FOODEEG_Images\0906.jpg	NY	Left	No	0.659692600020207	0	300454	234
587.86328125	1	health	trialStart	1	44	44	foodImage.52	FOODEEG_Images\0539.jpg	YN	Left	Yes	0.441987200058065	0	300987	251
588.92578125	2	health	foodImageDisplay	1	44	44	foodImage.52	FOODEEG_Images\0539.jpg	YN	Left	Yes	0.441987200058065	0	301531	252
590.99609375	0.441987200058065	health	choicePhaseStart	1	44	44	foodImage.52	FOODEEG_Images\0539.jpg	YN	Left	Yes	0.441987200058065	0	302591	253
591.4296875	0	health	response	1	44	44	foodImage.52	FOODEEG_Images\0539.jpg	YN	Left	Yes	0.441987200058065	0	302813	234
592.470703125	1	taste	trialStart	1	45	45	foodImage.108	FOODEEG_Images\0916.jpg	NY	Left	No	0.507415300002322	0	303346	251
593.5078125	2	taste	foodImageDisplay	1	45	45	foodImage.108	FOODEEG_Images\0916.jpg	NY	Left	No	0.507415300002322	0	303877	252
595.5703125	0.507415300002322	taste	choicePhaseStart	1	45	45	foodImage.108	FOODEEG_Images\0916.jpg	NY	Left	No	0.507415300002322	0	304933	253
596.0703125	0	taste	response	1	45	45	foodImage.108	FOODEEG_Images\0916.jpg	NY	Left	No	0.507415300002322	0	305189	234
597.11328125	1	decision	trialStart	1	46	46	foodImage.62	FOODEEG_Images\0644.jpg	NY	Right	Yes	0.572325799963437	0	305723	251
598.1953125	2	decision	foodImageDisplay	1	46	46	foodImage.62	FOODEEG_Images\0644.jpg	NY	Right	Yes	0.572325799963437	0	306277	252
600.263671875	0.572325799963437	decision	choicePhaseStart	1	46	46	foodImage.62	FOODEEG_Images\0644.jpg	NY	Right	Yes	0.572325799963437	0	307336	253
600.830078125	0	decision	response	1	46	46	foodImage.62	FOODEEG_Images\0644.jpg	NY	Right	Yes	0.572325799963437	0	307626	235
601.873046875	1	taste	trialStart	1	47	47	foodImage.85	FOODEEG_Images\0841.jpg	YN	Left	Yes	0.599152499926277	0	308160	251
602.9296875	2	taste	foodImageDisplay	1	47	47	foodImage.85	FOODEEG_Images\0841.jpg	YN	Left	Yes	0.599152499926277	0	308701	252
604.9921875	0.599152499926277	taste	choicePhaseStart	1	47	47	foodImage.85	FOODEEG_Images\0841.jpg	YN	Left	Yes	0.599152499926277	0	309757	253
605.58203125	0	taste	response	1	47	47	foodImage.85	FOODEEG_Images\0841.jpg	YN	Left	Yes	0.599152499926277	0	310059	234
606.623046875	1	health	trialStart	1	48	48	foodImage.98	FOODEEG_Images\0906.jpg	YN	Right	No	0.797541699954309	0	310592	251
607.662109375	2	health	foodImageDisplay	1	48	48	foodImage.98	FOODEEG_Images\0906.jpg	YN	Right	No	0.797541699954309	0	311124	252
609.728515625	0.797541699954309	health	choicePhaseStart	1	48	48	foodImage.98	FOODEEG_Images\0906.jpg	YN	Right	No	0.797541699954309	0	312182	253
610.517578125	0	health	response	1	48	48	foodImage.98	FOODEEG_Images\0906.jpg	YN	Right	No	0.797541699954309	0	312586	235
611.560546875	1	health	trialStart	1	49	49	foodImage.69	FOODEEG_Images\0693.jpg	YN	Left	Yes	0.569436900084838	0	313120	251
612.62109375	2	health	foodImageDisplay	1	49	49	foodImage.69	FOODEEG_Images\0693.jpg	YN	Left	Yes	0.569436900084838	0	313663	252
614.68359375	0.569436900084838	health	choicePhaseStart	1	49	49	foodImage.69	FOODEEG_Images\0693.jpg	YN	Left	Yes	0.569436900084838	0	314719	253
615.244140625	0	health	response	1	49	49	foodImage.69	FOODEEG_Images\0693.jpg	YN	Left	Yes	0.569436900084838	0	315006	234
616.291015625	1	taste	trialStart	1	50	50	foodImage.111	FOODEEG_Images\0919.jpg	NY	Left	No	0.605058899964206	0	315542	251
617.330078125	2	taste	foodImageDisplay	1	50	50	foodImage.111	FOODEEG_Images\0919.jpg	NY	Left	No	0.605058899964206	0	316074	252
619.392578125	0.605058899964206	taste	choicePhaseStart	1	50	50	foodImage.111	FOODEEG_Images\0919.jpg	NY	Left	No	0.605058899964206	0	317130	253
619.98828125	0	taste	response	1	50	50	foodImage.111	FOODEEG_Images\0919.jpg	NY	Left	No	0.605058899964206	0	317435	234
621.029296875	1	taste	trialStart	1	51	51	foodImage.21	FOODEEG_Images\0234.jpg	YN	Left	Yes	0.421963199973106	0	317968	251
622.087890625	2	taste	foodImageDisplay	1	51	51	foodImage.21	FOODEEG_Images\0234.jpg	YN	Left	Yes	0.421963199973106	0	318510	252
624.150390625	0.421963199973106	taste	choicePhaseStart	1	51	51	foodImage.21	FOODEEG_Images\0234.jpg	YN	Left	Yes	0.421963199973106	0	319566	253
624.564453125	0	taste	response	1	51	51	foodImage.21	FOODEEG_Images\0234.jpg	YN	Left	Yes	0.421963199973106	0	319778	234
625.607421875	1	health	trialStart	1	52	52	foodImage.108	FOODEEG_Images\0916.jpg	NY	Right	Yes	0.670927099999972	0	320312	251
626.646484375	2	health	foodImageDisplay	1	52	52	foodImage.108	FOODEEG_Images\0916.jpg	NY	Right	Yes	0.670927099999972	0	320844	252
628.7109375	0.670927099999972	health	choicePhaseStart	1	52	52	foodImage.108	FOODEEG_Images\0916.jpg	NY	Right	Yes	0.670927099999972	0	321901	253
629.373046875	0	health	response	1	52	52	foodImage.108	FOODEEG_Images\0916.jpg	NY	Right	Yes	0.670927099999972	0	322240	235
630.416015625	1	health	trialStart	1	53	53	foodImage.16	FOODEEG_Images\0196.jpg	NY	Right	Yes	0.60016600007657	0	322774	251
631.47265625	2	health	foodImageDisplay	1	53	53	foodImage.16	FOODEEG_Images\0196.jpg	NY	Right	Yes	0.60016600007657	0	323315	252
633.541015625	0.60016600007657	health	choicePhaseStart	1	53	53	foodImage.16	FOODEEG_Images\0196.jpg	NY	Right	Yes	0.60016600007657	0	324374	253
634.1328125	0	health	response	1	53	53	foodImage.16	FOODEEG_Images\0196.jpg	NY	Right	Yes	0.60016600007657	0	324677	235
635.189453125	1	decision	trialStart	1	54	54	foodImage.79	FOODEEG_Images\0794.jpg	NY	Right	Yes	0.578537699999288	0	325218	251
636.232421875	2	decision	foodImageDisplay	1	54	54	foodImage.79	FOODEEG_Images\0794.jpg	NY	Right	Yes	0.578537699999288	0	325752	252
638.298828125	0.578537699999288	decision	choicePhaseStart	1	54	54	foodImage.79	FOODEEG_Images\0794.jpg	NY	Right	Yes	0.578537699999288	0	326810	253
638.8671875	0	decision	response	1	54	54	foodImage.79	FOODEEG_Images\0794.jpg	NY	Right	Yes	0.578537699999288	0	327101	235
639.919921875	1	decision	trialStart	1	55	55	foodImage.118	FOODEEG_Images\0926.jpg	NY	Left	No	0.581031000008807	0	327640	251
640.9765625	2	decision	foodImageDisplay	1	55	55	foodImage.118	FOODEEG_Images\0926.jpg	NY	Left	No	0.581031000008807	0	328181	252
643.044921875	0.581031000008807	decision	choicePhaseStart	1	55	55	foodImage.118	FOODEEG_Images\0926.jpg	NY	Left	No	0.581031000008807	0	329240	253
643.619140625	0	decision	response	1	55	55	foodImage.118	FOODEEG_Images\0926.jpg	NY	Left	No	0.581031000008807	0	329534	234
644.6640625	1	health	trialStart	1	56	56	foodImage.113	FOODEEG_Images\0921.jpg	NY	Left	No	0.566205400042236	0	330069	251
645.703125	2	health	foodImageDisplay	1	56	56	foodImage.113	FOODEEG_Images\0921.jpg	NY	Left	No	0.566205400042236	0	330601	252
647.767578125	0.566205400042236	health	choicePhaseStart	1	56	56	foodImage.113	FOODEEG_Images\0921.jpg	NY	Left	No	0.566205400042236	0	331658	253
648.32421875	0	health	response	1	56	56	foodImage.113	FOODEEG_Images\0921.jpg	NY	Left	No	0.566205400042236	0	331943	234
649.37109375	1	decision	trialStart	1	57	57	foodImage.45	FOODEEG_Images\0478.jpg	NY	Right	Yes	0.571833099937066	0	332479	251
650.41796875	2	decision	foodImageDisplay	1	57	57	foodImage.45	FOODEEG_Images\0478.jpg	NY	Right	Yes	0.571833099937066	0	333015	252
652.48046875	0.571833099937066	decision	choicePhaseStart	1	57	57	foodImage.45	FOODEEG_Images\0478.jpg	NY	Right	Yes	0.571833099937066	0	334071	253
653.04296875	0	decision	response	1	57	57	foodImage.45	FOODEEG_Images\0478.jpg	NY	Right	Yes	0.571833099937066	0	334359	235
654.087890625	1	taste	trialStart	1	58	58	foodImage.16	FOODEEG_Images\0196.jpg	YN	Left	Yes	1.30196870001964	0	334894	251
655.146484375	2	taste	foodImageDisplay	1	58	58	foodImage.16	FOODEEG_Images\0196.jpg	YN	Left	Yes	1.30196870001964	0	335436	252
657.212890625	1.30196870001964	taste	choicePhaseStart	1	58	58	foodImage.16	FOODEEG_Images\0196.jpg	YN	Left	Yes	1.30196870001964	0	336494	253
658.5078125	0	taste	response	1	58	58	foodImage.16	FOODEEG_Images\0196.jpg	YN	Left	Yes	1.30196870001964	0	337157	234
659.55078125	1	taste	trialStart	1	59	59	foodImage.24	FOODEEG_Images\0250.jpg	NY	Left	No	2.63991320005152	0	337691	251
660.61328125	2	taste	foodImageDisplay	1	59	59	foodImage.24	FOODEEG_Images\0250.jpg	NY	Left	No	2.63991320005152	0	338235	252
662.681640625	2.63991320005152	taste	choicePhaseStart	1	59	59	foodImage.24	FOODEEG_Images\0250.jpg	NY	Left	No	2.63991320005152	0	339294	253
665.314453125	0	taste	response	1	59	59	foodImage.24	FOODEEG_Images\0250.jpg	NY	Left	No	2.63991320005152	0	340642	234
666.35546875	1	taste	trialStart	1	60	60	foodImage.43	FOODEEG_Images\0445.jpg	NY	Left	No	1.26276060007513	0	341175	251
667.4140625	2	taste	foodImageDisplay	1	60	60	foodImage.43	FOODEEG_Images\0445.jpg	NY	Left	No	1.26276060007513	0	341717	252
669.4765625	1.26276060007513	taste	choicePhaseStart	1	60	60	foodImage.43	FOODEEG_Images\0445.jpg	NY	Left	No	1.26276060007513	0	342773	253
670.73046875	0	taste	response	1	60	60	foodImage.43	FOODEEG_Images\0445.jpg	NY	Left	No	1.26276060007513	0	343415	234
672.775390625	17.54296875	n/a	blockEnd	n/a	n/a	n/a	n/a	n/a	n/a	n/a	n/a	n/a	n/a	344462	254
690.318359375	2	n/a	blockStart	2	n/a	n/a	n/a	n/a	n/a	n/a	n/a	n/a	n/a	353444	250
692.349609375	1	health	trialStart	2	61	1	foodImage.8	FOODEEG_Images\0136.jpg	YN	Right	No	0.875083099934272	0	354484	251
693.392578125	2	health	foodImageDisplay	2	61	1	foodImage.8	FOODEEG_Images\0136.jpg	YN	Right	No	0.875083099934272	0	355018	252
695.455078125	0.875083099934272	health	choicePhaseStart	2	61	1	foodImage.8	FOODEEG_Images\0136.jpg	YN	Right	No	0.875083099934272	0	356074	253
696.322265625	0	health	response	2	61	1	foodImage.8	FOODEEG_Images\0136.jpg	YN	Right	No	0.875083099934272	0	356518	235
697.365234375	1	taste	trialStart	2	62	2	foodImage.12	FOODEEG_Images\0181.jpg	NY	Right	Yes	0.570046999957412	0	357052	251
698.40625	2	taste	foodImageDisplay	2	62	2	foodImage.12	FOODEEG_Images\0181.jpg	NY	Right	Yes	0.570046999957412	0	357585	252
700.47265625	0.570046999957412	taste	choicePhaseStart	2	62	2	foodImage.12	FOODEEG_Images\0181.jpg	NY	Right	Yes	0.570046999957412	0	358643	253
701.033203125	0	taste	response	2	62	2	foodImage.12	FOODEEG_Images\0181.jpg	NY	Right	Yes	0.570046999957412	0	358930	235
702.078125	1	taste	trialStart	2	63	3	foodImage.17	FOODEEG_Images\0199.jpg	YN	Left	Yes	0.446800600038841	0	359465	251
703.12109375	2	taste	foodImageDisplay	2	63	3	foodImage.17	FOODEEG_Images\0199.jpg	YN	Left	Yes	0.446800600038841	0	359999	252
705.185546875	0.446800600038841	taste	choicePhaseStart	2	63	3	foodImage.17	FOODEEG_Images\0199.jpg	YN	Left	Yes	0.446800600038841	0	361056	253
705.625	0	taste	response	2	63	3	foodImage.17	FOODEEG_Images\0199.jpg	YN	Left	Yes	0.446800600038841	0	361281	234
706.66796875	1	taste	trialStart	2	64	4	foodImage.26	FOODEEG_Images\0262.jpg	YN	Right	No	0.460865099914372	0	361815	251
707.7109375	2	taste	foodImageDisplay	2	64	4	foodImage.26	FOODEEG_Images\0262.jpg	YN	Right	No	0.460865099914372	0	362349	252
709.7734375	0.460865099914372	taste	choicePhaseStart	2	64	4	foodImage.26	FOODEEG_Images\0262.jpg	YN	Right	No	0.460865099914372	0	363405	253
710.2265625	0	taste	response	2	64	4	foodImage.26	FOODEEG_Images\0262.jpg	YN	Right	No	0.460865099914372	0	363637	235
711.26953125	1	health	trialStart	2	65	5	foodImage.44	FOODEEG_Images\0459.jpg	YN	Right	No	0.731744499993511	0	364171	251
712.31640625	2	health	foodImageDisplay	2	65	5	foodImage.44	FOODEEG_Images\0459.jpg	YN	Right	No	0.731744499993511	0	364707	252
714.3828125	0.731744499993511	health	choicePhaseStart	2	65	5	foodImage.44	FOODEEG_Images\0459.jpg	YN	Right	No	0.731744499993511	0	365765	253
715.10546875	0	health	response	2	65	5	foodImage.44	FOODEEG_Images\0459.jpg	YN	Right	No	0.731744499993511	0	366135	235
716.1484375	1	health	trialStart	2	66	6	foodImage.84	FOODEEG_Images\0830.jpg	NY	Right	Yes	0.854091200046241	0	366669	251
717.205078125	2	health	foodImageDisplay	2	66	6	foodImage.84	FOODEEG_Images\0830.jpg	NY	Right	Yes	0.854091200046241	0	367210	252
719.2734375	0.854091200046241	health	choicePhaseStart	2	66	6	foodImage.84	FOODEEG_Images\0830.jpg	NY	Right	Yes	0.854091200046241	0	368269	253
720.12109375	0	health	response	2	66	6	foodImage.84	FOODEEG_Images\0830.jpg	NY	Right	Yes	0.854091200046241	0	368703	235
721.162109375	1	taste	trialStart	2	67	7	foodImage.39	FOODEEG_Images\0367.jpg	YN	Left	Yes	0.507458599982783	0	369236	251
722.19921875	2	taste	foodImageDisplay	2	67	7	foodImage.39	FOODEEG_Images\0367.jpg	YN	Left	Yes	0.507458599982783	0	369767	252
724.263671875	0.507458599982783	taste	choicePhaseStart	2	67	7	foodImage.39	FOODEEG_Images\0367.jpg	YN	Left	Yes	0.507458599982783	0	370824	253
724.76171875	0	taste	response	2	67	7	foodImage.39	FOODEEG_Images\0367.jpg	YN	Left	Yes	0.507458599982783	0	371079	234
725.802734375	1	decision	trialStart	2	68	8	foodImage.105	FOODEEG_Images\0913.jpg	YN	Right	No	0.712004499975592	0	371612	251
726.841796875	2	decision	foodImageDisplay	2	68	8	foodImage.105	FOODEEG_Images\0913.jpg	YN	Right	No	0.712004499975592	0	372144	252
728.90625	0.712004499975592	decision	choicePhaseStart	2	68	8	foodImage.105	FOODEEG_Images\0913.jpg	YN	Right	No	0.712004499975592	0	373201	253
729.609375	0	decision	response	2	68	8	foodImage.105	FOODEEG_Images\0913.jpg	YN	Right	No	0.712004499975592	0	373561	235
730.65234375	1	health	trialStart	2	69	9	foodImage.18	FOODEEG_Images\0202.jpg	YN	Left	Yes	0.601642999914475	0	374095	251
731.720703125	2	health	foodImageDisplay	2	69	9	foodImage.18	FOODEEG_Images\0202.jpg	YN	Left	Yes	0.601642999914475	0	374642	252
733.78515625	0.601642999914475	health	choicePhaseStart	2	69	9	foodImage.18	FOODEEG_Images\0202.jpg	YN	Left	Yes	0.601642999914475	0	375699	253
734.376953125	0	health	response	2	69	9	foodImage.18	FOODEEG_Images\0202.jpg	YN	Left	Yes	0.601642999914475	0	376002	234
735.419921875	1	taste	trialStart	2	70	10	foodImage.55	FOODEEG_Images\0567.jpg	NY	Right	Yes	0.706264899927191	0	376536	251
736.48046875	2	taste	foodImageDisplay	2	70	10	foodImage.55	FOODEEG_Images\0567.jpg	NY	Right	Yes	0.706264899927191	0	377079	252
738.54296875	0.706264899927191	taste	choicePhaseStart	2	70	10	foodImage.55	FOODEEG_Images\0567.jpg	NY	Right	Yes	0.706264899927191	0	378135	253
739.240234375	0	taste	response	2	70	10	foodImage.55	FOODEEG_Images\0567.jpg	NY	Right	Yes	0.706264899927191	0	378492	235
740.2890625	1	decision	trialStart	2	71	11	foodImage.92	FOODEEG_Images\0900.jpg	NY	Left	No	0.607500800048001	0	379029	251
741.337890625	2	decision	foodImageDisplay	2	71	11	foodImage.92	FOODEEG_Images\0900.jpg	NY	Left	No	0.607500800048001	0	379566	252
743.40234375	0.607500800048001	decision	choicePhaseStart	2	71	11	foodImage.92	FOODEEG_Images\0900.jpg	NY	Left	No	0.607500800048001	0	380623	253
744	0	decision	response	2	71	11	foodImage.92	FOODEEG_Images\0900.jpg	NY	Left	No	0.607500800048001	0	380929	234
745.05078125	1	decision	trialStart	2	72	12	foodImage.28	FOODEEG_Images\0273.jpg	YN	Right	No	0.535771700087935	0	381467	251
746.107421875	2	decision	foodImageDisplay	2	72	12	foodImage.28	FOODEEG_Images\0273.jpg	YN	Right	No	0.535771700087935	0	382008	252
748.169921875	0.535771700087935	decision	choicePhaseStart	2	72	12	foodImage.28	FOODEEG_Images\0273.jpg	YN	Right	No	0.535771700087935	0	383064	253
748.697265625	0	decision	response	2	72	12	foodImage.28	FOODEEG_Images\0273.jpg	YN	Right	No	0.535771700087935	0	383334	235
749.74609375	1	taste	trialStart	2	73	13	foodImage.34	FOODEEG_Images\0339.jpg	NY	Right	Yes	0.691835399949923	0	383871	251
750.806640625	2	taste	foodImageDisplay	2	73	13	foodImage.34	FOODEEG_Images\0339.jpg	NY	Right	Yes	0.691835399949923	0	384414	252
752.869140625	0.691835399949923	taste	choicePhaseStart	2	73	13	foodImage.34	FOODEEG_Images\0339.jpg	NY	Right	Yes	0.691835399949923	0	385470	253
753.552734375	0	taste	response	2	73	13	foodImage.34	FOODEEG_Images\0339.jpg	NY	Right	Yes	0.691835399949923	0	385820	235
754.595703125	1	taste	trialStart	2	74	14	foodImage.31	FOODEEG_Images\0294.jpg	YN	Left	Yes	0.60090229997877	0	386354	251
755.63671875	2	taste	foodImageDisplay	2	74	14	foodImage.31	FOODEEG_Images\0294.jpg	YN	Left	Yes	0.60090229997877	0	386887	252
757.703125	0.60090229997877	taste	choicePhaseStart	2	74	14	foodImage.31	FOODEEG_Images\0294.jpg	YN	Left	Yes	0.60090229997877	0	387945	253
758.296875	0	taste	response	2	74	14	foodImage.31	FOODEEG_Images\0294.jpg	YN	Left	Yes	0.60090229997877	0	388249	234
759.33984375	1	health	trialStart	2	75	15	foodImage.25	FOODEEG_Images\0261.jpg	YN	Left	Yes	0.818564899964258	0	388783	251
760.3828125	2	health	foodImageDisplay	2	75	15	foodImage.25	FOODEEG_Images\0261.jpg	YN	Left	Yes	0.818564899964258	0	389317	252
762.447265625	0.818564899964258	health	choicePhaseStart	2	75	15	foodImage.25	FOODEEG_Images\0261.jpg	YN	Left	Yes	0.818564899964258	0	390374	253
763.255859375	0	health	response	2	75	15	foodImage.25	FOODEEG_Images\0261.jpg	YN	Left	Yes	0.818564899964258	0	390788	234
764.298828125	1	decision	trialStart	2	76	16	foodImage.91	FOODEEG_Images\0896.jpg	YN	Left	Yes	0.594291700050235	0	391322	251
765.359375	2	decision	foodImageDisplay	2	76	16	foodImage.91	FOODEEG_Images\0896.jpg	YN	Left	Yes	0.594291700050235	0	391865	252
767.423828125	0.594291700050235	decision	choicePhaseStart	2	76	16	foodImage.91	FOODEEG_Images\0896.jpg	YN	Left	Yes	0.594291700050235	0	392922	253
768.0078125	0	decision	response	2	76	16	foodImage.91	FOODEEG_Images\0896.jpg	YN	Left	Yes	0.594291700050235	0	393221	234
769.05078125	1	taste	trialStart	2	77	17	foodImage.109	FOODEEG_Images\0917.jpg	NY	Right	Yes	1.16168869996909	0	393755	251
770.087890625	2	taste	foodImageDisplay	2	77	17	foodImage.109	FOODEEG_Images\0917.jpg	NY	Right	Yes	1.16168869996909	0	394286	252
772.150390625	1.16168869996909	taste	choicePhaseStart	2	77	17	foodImage.109	FOODEEG_Images\0917.jpg	NY	Right	Yes	1.16168869996909	0	395342	253
773.302734375	0	taste	response	2	77	17	foodImage.109	FOODEEG_Images\0917.jpg	NY	Right	Yes	1.16168869996909	0	395932	235
774.3515625	1	health	trialStart	2	78	18	foodImage.105	FOODEEG_Images\0913.jpg	NY	Right	Yes	0.852894300012849	0	396469	251
775.388671875	2	health	foodImageDisplay	2	78	18	foodImage.105	FOODEEG_Images\0913.jpg	NY	Right	Yes	0.852894300012849	0	397000	252
777.453125	0.852894300012849	health	choicePhaseStart	2	78	18	foodImage.105	FOODEEG_Images\0913.jpg	NY	Right	Yes	0.852894300012849	0	398057	253
778.294921875	0	health	response	2	78	18	foodImage.105	FOODEEG_Images\0913.jpg	NY	Right	Yes	0.852894300012849	0	398488	235
779.337890625	1	decision	trialStart	2	79	19	foodImage.61	FOODEEG_Images\0640.jpg	NY	Right	Yes	1.33389499993064	0	399022	251
780.380859375	2	decision	foodImageDisplay	2	79	19	foodImage.61	FOODEEG_Images\0640.jpg	NY	Right	Yes	1.33389499993064	0	399556	252
782.44921875	1.33389499993064	decision	choicePhaseStart	2	79	19	foodImage.61	FOODEEG_Images\0640.jpg	NY	Right	Yes	1.33389499993064	0	400615	253
783.775390625	0	decision	response	2	79	19	foodImage.61	FOODEEG_Images\0640.jpg	NY	Right	Yes	1.33389499993064	0	401294	235
784.818359375	1	decision	trialStart	2	80	20	foodImage.57	FOODEEG_Images\0587.jpg	YN	Left	Yes	0.680769100086764	0	401828	251
785.880859375	2	decision	foodImageDisplay	2	80	20	foodImage.57	FOODEEG_Images\0587.jpg	YN	Left	Yes	0.680769100086764	0	402372	252
787.94921875	0.680769100086764	decision	choicePhaseStart	2	80	20	foodImage.57	FOODEEG_Images\0587.jpg	YN	Left	Yes	0.680769100086764	0	403431	253
788.623046875	0	decision	response	2	80	20	foodImage.57	FOODEEG_Images\0587.jpg	YN	Left	Yes	0.680769100086764	0	403776	234
789.666015625	1	health	trialStart	2	81	21	foodImage.40	FOODEEG_Images\0373.jpg	NY	Left	No	2.39572590007447	0	404310	251
790.708984375	2	health	foodImageDisplay	2	81	21	foodImage.40	FOODEEG_Images\0373.jpg	NY	Left	No	2.39572590007447	0	404844	252
792.7734375	2.39572590007447	health	choicePhaseStart	2	81	21	foodImage.40	FOODEEG_Images\0373.jpg	NY	Left	No	2.39572590007447	0	405901	253
795.16015625	0	health	response	2	81	21	foodImage.40	FOODEEG_Images\0373.jpg	NY	Left	No	2.39572590007447	0	407123	234
796.201171875	1	taste	trialStart	2	82	22	foodImage.106	FOODEEG_Images\0914.jpg	NY	Left	No	0.872452799929306	0	407656	251
797.240234375	2	taste	foodImageDisplay	2	82	22	foodImage.106	FOODEEG_Images\0914.jpg	NY	Left	No	0.872452799929306	0	408188	252
799.302734375	0.872452799929306	taste	choicePhaseStart	2	82	22	foodImage.106	FOODEEG_Images\0914.jpg	NY	Left	No	0.872452799929306	0	409244	253
800.166015625	0	taste	response	2	82	22	foodImage.106	FOODEEG_Images\0914.jpg	NY	Left	No	0.872452799929306	0	409686	234
801.208984375	1	taste	trialStart	2	83	23	foodImage.91	FOODEEG_Images\0896.jpg	YN	Left	Yes	1.10155310004484	0	410220	251
802.267578125	2	taste	foodImageDisplay	2	83	23	foodImage.91	FOODEEG_Images\0896.jpg	YN	Left	Yes	1.10155310004484	0	410762	252
804.330078125	1.10155310004484	taste	choicePhaseStart	2	83	23	foodImage.91	FOODEEG_Images\0896.jpg	YN	Left	Yes	1.10155310004484	0	411818	253
805.421875	0	taste	response	2	83	23	foodImage.91	FOODEEG_Images\0896.jpg	YN	Left	Yes	1.10155310004484	0	412377	234
806.470703125	1	health	trialStart	2	84	24	foodImage.20	FOODEEG_Images\0226.jpg	YN	Left	Yes	2.5429333000211	0	412914	251
807.51171875	2	health	foodImageDisplay	2	84	24	foodImage.20	FOODEEG_Images\0226.jpg	YN	Left	Yes	2.5429333000211	0	413447	252
809.57421875	2.5429333000211	health	choicePhaseStart	2	84	24	foodImage.20	FOODEEG_Images\0226.jpg	YN	Left	Yes	2.5429333000211	0	414503	253
812.109375	0	health	response	2	84	24	foodImage.20	FOODEEG_Images\0226.jpg	YN	Left	Yes	2.5429333000211	0	415801	234
813.154296875	1	health	trialStart	2	85	25	foodImage.51	FOODEEG_Images\0536.jpg	YN	Left	Yes	2.23882929992396	0	416336	251
814.19921875	2	health	foodImageDisplay	2	85	25	foodImage.51	FOODEEG_Images\0536.jpg	YN	Left	Yes	2.23882929992396	0	416871	252
816.265625	2.23882929992396	health	choicePhaseStart	2	85	25	foodImage.51	FOODEEG_Images\0536.jpg	YN	Left	Yes	2.23882929992396	0	417929	253
818.494140625	0	health	response	2	85	25	foodImage.51	FOODEEG_Images\0536.jpg	YN	Left	Yes	2.23882929992396	0	419070	234
819.537109375	1	decision	trialStart	2	86	26	foodImage.93	FOODEEG_Images\0901.jpg	YN	Right	No	0.799297200050205	0	419604	251
820.583984375	2	decision	foodImageDisplay	2	86	26	foodImage.93	FOODEEG_Images\0901.jpg	YN	Right	No	0.799297200050205	0	420140	252
822.6484375	0.799297200050205	decision	choicePhaseStart	2	86	26	foodImage.93	FOODEEG_Images\0901.jpg	YN	Right	No	0.799297200050205	0	421197	253
823.4375	0	decision	response	2	86	26	foodImage.93	FOODEEG_Images\0901.jpg	YN	Right	No	0.799297200050205	0	421601	235
824.482421875	1	health	trialStart	2	87	27	foodImage.38	FOODEEG_Images\0365.jpg	NY	Right	Yes	0.663115500006825	0	422136	251
825.521484375	2	health	foodImageDisplay	2	87	27	foodImage.38	FOODEEG_Images\0365.jpg	NY	Right	Yes	0.663115500006825	0	422668	252
827.583984375	0.663115500006825	health	choicePhaseStart	2	87	27	foodImage.38	FOODEEG_Images\0365.jpg	NY	Right	Yes	0.663115500006825	0	423724	253
828.23828125	0	health	response	2	87	27	foodImage.38	FOODEEG_Images\0365.jpg	NY	Right	Yes	0.663115500006825	0	424059	235
829.287109375	1	health	trialStart	2	88	28	foodImage.92	FOODEEG_Images\0900.jpg	NY	Left	No	1.01352040003985	0	424596	251
830.32421875	2	health	foodImageDisplay	2	88	28	foodImage.92	FOODEEG_Images\0900.jpg	NY	Left	No	1.01352040003985	0	425127	252
832.38671875	1.01352040003985	health	choicePhaseStart	2	88	28	foodImage.92	FOODEEG_Images\0900.jpg	NY	Left	No	1.01352040003985	0	426183	253
833.390625	0	health	response	2	88	28	foodImage.92	FOODEEG_Images\0900.jpg	NY	Left	No	1.01352040003985	0	426697	234
834.43359375	1	taste	trialStart	2	89	29	foodImage.18	FOODEEG_Images\0202.jpg	YN	Left	Yes	0.800355699961074	0	427231	251
835.4921875	2	taste	foodImageDisplay	2	89	29	foodImage.18	FOODEEG_Images\0202.jpg	YN	Left	Yes	0.800355699961074	0	427773	252
837.556640625	0.800355699961074	taste	choicePhaseStart	2	89	29	foodImage.18	FOODEEG_Images\0202.jpg	YN	Left	Yes	0.800355699961074	0	428830	253
838.349609375	0	taste	response	2	89	29	foodImage.18	FOODEEG_Images\0202.jpg	YN	Left	Yes	0.800355699961074	0	429236	234
839.392578125	1	taste	trialStart	2	90	30	foodImage.44	FOODEEG_Images\0459.jpg	YN	Left	Yes	0.738301999983378	0	429770	251
840.4375	2	taste	foodImageDisplay	2	90	30	foodImage.44	FOODEEG_Images\0459.jpg	YN	Left	Yes	0.738301999983378	0	430305	252
842.5	0.738301999983378	taste	choicePhaseStart	2	90	30	foodImage.44	FOODEEG_Images\0459.jpg	YN	Left	Yes	0.738301999983378	0	431361	253
843.228515625	0	taste	response	2	90	30	foodImage.44	FOODEEG_Images\0459.jpg	YN	Left	Yes	0.738301999983378	0	431734	234
844.2734375	1	decision	trialStart	2	91	31	foodImage.16	FOODEEG_Images\0196.jpg	NY	Right	Yes	0.73655329993926	0	432269	251
845.341796875	2	decision	foodImageDisplay	2	91	31	foodImage.16	FOODEEG_Images\0196.jpg	NY	Right	Yes	0.73655329993926	0	432816	252
847.40625	0.73655329993926	decision	choicePhaseStart	2	91	31	foodImage.16	FOODEEG_Images\0196.jpg	NY	Right	Yes	0.73655329993926	0	433873	253
848.1328125	0	decision	response	2	91	31	foodImage.16	FOODEEG_Images\0196.jpg	NY	Right	Yes	0.73655329993926	0	434245	235
849.17578125	1	decision	trialStart	2	92	32	foodImage.19	FOODEEG_Images\0225.jpg	NY	Right	Yes	0.594643399934284	0	434779	251
850.220703125	2	decision	foodImageDisplay	2	92	32	foodImage.19	FOODEEG_Images\0225.jpg	NY	Right	Yes	0.594643399934284	0	435314	252
852.2890625	0.594643399934284	decision	choicePhaseStart	2	92	32	foodImage.19	FOODEEG_Images\0225.jpg	NY	Right	Yes	0.594643399934284	0	436373	253
852.876953125	0	decision	response	2	92	32	foodImage.19	FOODEEG_Images\0225.jpg	NY	Right	Yes	0.594643399934284	0	436674	235
853.919921875	1	decision	trialStart	2	93	33	foodImage.21	FOODEEG_Images\0234.jpg	YN	Left	Yes	0.567793400026858	0	437208	251
854.98046875	2	decision	foodImageDisplay	2	93	33	foodImage.21	FOODEEG_Images\0234.jpg	YN	Left	Yes	0.567793400026858	0	437751	252
857.04296875	0.567793400026858	decision	choicePhaseStart	2	93	33	foodImage.21	FOODEEG_Images\0234.jpg	YN	Left	Yes	0.567793400026858	0	438807	253
857.60546875	0	decision	response	2	93	33	foodImage.21	FOODEEG_Images\0234.jpg	YN	Left	Yes	0.567793400026858	0	439095	234
858.6484375	1	decision	trialStart	2	94	34	foodImage.77	FOODEEG_Images\0771.jpg	NY	Right	Yes	0.552691300050355	0	439629	251
859.693359375	2	decision	foodImageDisplay	2	94	34	foodImage.77	FOODEEG_Images\0771.jpg	NY	Right	Yes	0.552691300050355	0	440164	252
861.7578125	0.552691300050355	decision	choicePhaseStart	2	94	34	foodImage.77	FOODEEG_Images\0771.jpg	NY	Right	Yes	0.552691300050355	0	441221	253
862.30078125	0	decision	response	2	94	34	foodImage.77	FOODEEG_Images\0771.jpg	NY	Right	Yes	0.552691300050355	0	441499	235
863.34375	1	health	trialStart	2	95	35	foodImage.57	FOODEEG_Images\0587.jpg	YN	Left	Yes	0.552737800055183	0	442033	251
864.404296875	2	health	foodImageDisplay	2	95	35	foodImage.57	FOODEEG_Images\0587.jpg	YN	Left	Yes	0.552737800055183	0	442576	252
866.46875	0.552737800055183	health	choicePhaseStart	2	95	35	foodImage.57	FOODEEG_Images\0587.jpg	YN	Left	Yes	0.552737800055183	0	443633	253
867.01171875	0	health	response	2	95	35	foodImage.57	FOODEEG_Images\0587.jpg	YN	Left	Yes	0.552737800055183	0	443911	234
868.052734375	1	health	trialStart	2	96	36	foodImage.97	FOODEEG_Images\0905.jpg	NY	Left	No	0.876938500092365	0	444444	251
869.08984375	2	health	foodImageDisplay	2	96	36	foodImage.97	FOODEEG_Images\0905.jpg	NY	Left	No	0.876938500092365	0	444975	252
871.15234375	0.876938500092365	health	choicePhaseStart	2	96	36	foodImage.97	FOODEEG_Images\0905.jpg	NY	Left	No	0.876938500092365	0	446031	253
872.01953125	0	health	response	2	96	36	foodImage.97	FOODEEG_Images\0905.jpg	NY	Left	No	0.876938500092365	0	446475	234
873.06640625	1	taste	trialStart	2	97	37	foodImage.84	FOODEEG_Images\0830.jpg	YN	Left	Yes	0.588448800030164	0	447011	251
874.123046875	2	taste	foodImageDisplay	2	97	37	foodImage.84	FOODEEG_Images\0830.jpg	YN	Left	Yes	0.588448800030164	0	447552	252
876.19140625	0.588448800030164	taste	choicePhaseStart	2	97	37	foodImage.84	FOODEEG_Images\0830.jpg	YN	Left	Yes	0.588448800030164	0	448611	253
876.771484375	0	taste	response	2	97	37	foodImage.84	FOODEEG_Images\0830.jpg	YN	Left	Yes	0.588448800030164	0	448908	234
877.822265625	1	taste	trialStart	2	98	38	foodImage.117	FOODEEG_Images\0925.jpg	NY	Left	No	0.55788290000055	0	449446	251
878.861328125	2	taste	foodImageDisplay	2	98	38	foodImage.117	FOODEEG_Images\0925.jpg	NY	Left	No	0.55788290000055	0	449978	252
880.923828125	0.55788290000055	taste	choicePhaseStart	2	98	38	foodImage.117	FOODEEG_Images\0925.jpg	NY	Left	No	0.55788290000055	0	451034	253
881.4765625	0	taste	response	2	98	38	foodImage.117	FOODEEG_Images\0925.jpg	NY	Left	No	0.55788290000055	0	451317	234
882.525390625	1	taste	trialStart	2	99	39	foodImage.71	FOODEEG_Images\0713.jpg	NY	Left	No	0.687908299965784	0	451854	251
883.56640625	2	taste	foodImageDisplay	2	99	39	foodImage.71	FOODEEG_Images\0713.jpg	NY	Left	No	0.687908299965784	0	452387	252
885.630859375	0.687908299965784	taste	choicePhaseStart	2	99	39	foodImage.71	FOODEEG_Images\0713.jpg	NY	Left	No	0.687908299965784	0	453444	253
886.30859375	0	taste	response	2	99	39	foodImage.71	FOODEEG_Images\0713.jpg	NY	Left	No	0.687908299965784	0	453791	234
887.3515625	1	decision	trialStart	2	100	40	foodImage.59	FOODEEG_Images\0607.jpg	NY	Right	Yes	0.685852499911562	0	454325	251
888.3984375	2	decision	foodImageDisplay	2	100	40	foodImage.59	FOODEEG_Images\0607.jpg	NY	Right	Yes	0.685852499911562	0	454861	252
890.466796875	0.685852499911562	decision	choicePhaseStart	2	100	40	foodImage.59	FOODEEG_Images\0607.jpg	NY	Right	Yes	0.685852499911562	0	455920	253
891.1484375	0	decision	response	2	100	40	foodImage.59	FOODEEG_Images\0607.jpg	NY	Right	Yes	0.685852499911562	0	456269	235
892.189453125	1	decision	trialStart	2	101	41	foodImage.94	FOODEEG_Images\0902.jpg	YN	Right	No	1.16471859999001	0	456802	251
893.228515625	2	decision	foodImageDisplay	2	101	41	foodImage.94	FOODEEG_Images\0902.jpg	YN	Right	No	1.16471859999001	0	457334	252
895.294921875	1.16471859999001	decision	choicePhaseStart	2	101	41	foodImage.94	FOODEEG_Images\0902.jpg	YN	Right	No	1.16471859999001	0	458392	253
896.451171875	0	decision	response	2	101	41	foodImage.94	FOODEEG_Images\0902.jpg	YN	Right	No	1.16471859999001	0	458984	235
897.5	1	health	trialStart	2	102	42	foodImage.77	FOODEEG_Images\0771.jpg	NY	Right	Yes	0.666333999950439	0	459521	251
898.544921875	2	health	foodImageDisplay	2	102	42	foodImage.77	FOODEEG_Images\0771.jpg	NY	Right	Yes	0.666333999950439	0	460056	252
900.609375	0.666333999950439	health	choicePhaseStart	2	102	42	foodImage.77	FOODEEG_Images\0771.jpg	NY	Right	Yes	0.666333999950439	0	461113	253
901.267578125	0	health	response	2	102	42	foodImage.77	FOODEEG_Images\0771.jpg	NY	Right	Yes	0.666333999950439	0	461450	235
902.3125	1	decision	trialStart	2	103	43	foodImage.101	FOODEEG_Images\0909.jpg	YN	Right	No	0.759782599983737	0	461985	251
903.349609375	2	decision	foodImageDisplay	2	103	43	foodImage.101	FOODEEG_Images\0909.jpg	YN	Right	No	0.759782599983737	0	462516	252
905.4140625	0.759782599983737	decision	choicePhaseStart	2	103	43	foodImage.101	FOODEEG_Images\0909.jpg	YN	Right	No	0.759782599983737	0	463573	253
906.1640625	0	decision	response	2	103	43	foodImage.101	FOODEEG_Images\0909.jpg	YN	Right	No	0.759782599983737	0	463957	235
907.205078125	1	taste	trialStart	2	104	44	foodImage.23	FOODEEG_Images\0244.jpg	YN	Left	Yes	1.13219560007565	0	464490	251
908.248046875	2	taste	foodImageDisplay	2	104	44	foodImage.23	FOODEEG_Images\0244.jpg	YN	Left	Yes	1.13219560007565	0	465024	252
910.3125	1.13219560007565	taste	choicePhaseStart	2	104	44	foodImage.23	FOODEEG_Images\0244.jpg	YN	Left	Yes	1.13219560007565	0	466081	253
911.435546875	0	taste	response	2	104	44	foodImage.23	FOODEEG_Images\0244.jpg	YN	Left	Yes	1.13219560007565	0	466656	234
912.494140625	1	health	trialStart	2	105	45	foodImage.22	FOODEEG_Images\0236.jpg	NY	Right	Yes	0.704246899927966	0	467198	251
913.53515625	2	health	foodImageDisplay	2	105	45	foodImage.22	FOODEEG_Images\0236.jpg	NY	Right	Yes	0.704246899927966	0	467731	252
915.603515625	0.704246899927966	health	choicePhaseStart	2	105	45	foodImage.22	FOODEEG_Images\0236.jpg	NY	Right	Yes	0.704246899927966	0	468790	253
916.298828125	0	health	response	2	105	45	foodImage.22	FOODEEG_Images\0236.jpg	NY	Right	Yes	0.704246899927966	0	469146	235
917.341796875	1	decision	trialStart	2	106	46	foodImage.98	FOODEEG_Images\0906.jpg	NY	Left	No	0.703416700009257	0	469680	251
918.396484375	2	decision	foodImageDisplay	2	106	46	foodImage.98	FOODEEG_Images\0906.jpg	NY	Left	No	0.703416700009257	0	470220	252
920.4609375	0.703416700009257	decision	choicePhaseStart	2	106	46	foodImage.98	FOODEEG_Images\0906.jpg	NY	Left	No	0.703416700009257	0	471277	253
921.154296875	0	decision	response	2	106	46	foodImage.98	FOODEEG_Images\0906.jpg	NY	Left	No	0.703416700009257	0	471632	234
922.205078125	1	decision	trialStart	2	107	47	foodImage.49	FOODEEG_Images\0515.jpg	YN	Left	Yes	0.637384100002237	0	472170	251
923.24609375	2	decision	foodImageDisplay	2	107	47	foodImage.49	FOODEEG_Images\0515.jpg	YN	Left	Yes	0.637384100002237	0	472703	252
925.310546875	0.637384100002237	decision	choicePhaseStart	2	107	47	foodImage.49	FOODEEG_Images\0515.jpg	YN	Left	Yes	0.637384100002237	0	473760	253
925.939453125	0	decision	response	2	107	47	foodImage.49	FOODEEG_Images\0515.jpg	YN	Left	Yes	0.637384100002237	0	474082	234
926.982421875	1	health	trialStart	2	108	48	foodImage.35	FOODEEG_Images\0350.jpg	YN	Left	Yes	0.578898899955675	0	474616	251
928.03515625	2	health	foodImageDisplay	2	108	48	foodImage.35	FOODEEG_Images\0350.jpg	YN	Left	Yes	0.578898899955675	0	475155	252
930.09765625	0.578898899955675	health	choicePhaseStart	2	108	48	foodImage.35	FOODEEG_Images\0350.jpg	YN	Left	Yes	0.578898899955675	0	476211	253
930.666015625	0	health	response	2	108	48	foodImage.35	FOODEEG_Images\0350.jpg	YN	Left	Yes	0.578898899955675	0	476502	234
931.71484375	1	decision	trialStart	2	109	49	foodImage.47	FOODEEG_Images\0488.jpg	NY	Right	Yes	0.667865599971265	0	477039	251
932.755859375	2	decision	foodImageDisplay	2	109	49	foodImage.47	FOODEEG_Images\0488.jpg	NY	Right	Yes	0.667865599971265	0	477572	252
934.82421875	0.667865599971265	decision	choicePhaseStart	2	109	49	foodImage.47	FOODEEG_Images\0488.jpg	NY	Right	Yes	0.667865599971265	0	478631	253
935.482421875	0	decision	response	2	109	49	foodImage.47	FOODEEG_Images\0488.jpg	NY	Right	Yes	0.667865599971265	0	478968	235
936.525390625	1	taste	trialStart	2	110	50	foodImage.10	FOODEEG_Images\0145.jpg	NY	Right	Yes	0.562906399951316	0	479502	251
937.5859375	2	taste	foodImageDisplay	2	110	50	foodImage.10	FOODEEG_Images\0145.jpg	NY	Right	Yes	0.562906399951316	0	480045	252
939.6484375	0.562906399951316	taste	choicePhaseStart	2	110	50	foodImage.10	FOODEEG_Images\0145.jpg	NY	Right	Yes	0.562906399951316	0	481101	253
940.203125	0	taste	response	2	110	50	foodImage.10	FOODEEG_Images\0145.jpg	NY	Right	Yes	0.562906399951316	0	481385	235
941.244140625	1	taste	trialStart	2	111	51	foodImage.100	FOODEEG_Images\0908.jpg	NY	Left	No	0.6698373000836	0	481918	251
942.283203125	2	taste	foodImageDisplay	2	111	51	foodImage.100	FOODEEG_Images\0908.jpg	NY	Left	No	0.6698373000836	0	482450	252
944.349609375	0.6698373000836	taste	choicePhaseStart	2	111	51	foodImage.100	FOODEEG_Images\0908.jpg	NY	Left	No	0.6698373000836	0	483508	253
945.009765625	0	taste	response	2	111	51	foodImage.100	FOODEEG_Images\0908.jpg	NY	Left	No	0.6698373000836	0	483846	234
946.052734375	1	decision	trialStart	2	112	52	foodImage.15	FOODEEG_Images\0189.jpg	NY	Right	Yes	0.612325399997644	0	484380	251
947.111328125	2	decision	foodImageDisplay	2	112	52	foodImage.15	FOODEEG_Images\0189.jpg	NY	Right	Yes	0.612325399997644	0	484922	252
949.17578125	0.612325399997644	decision	choicePhaseStart	2	112	52	foodImage.15	FOODEEG_Images\0189.jpg	NY	Right	Yes	0.612325399997644	0	485979	253
949.77734375	0	decision	response	2	112	52	foodImage.15	FOODEEG_Images\0189.jpg	NY	Right	Yes	0.612325399997644	0	486287	235
950.828125	1	health	trialStart	2	113	53	foodImage.63	FOODEEG_Images\0645.jpg	YN	Left	Yes	0.961153700016439	0	486825	251
951.880859375	2	health	foodImageDisplay	2	113	53	foodImage.63	FOODEEG_Images\0645.jpg	YN	Left	Yes	0.961153700016439	0	487364	252
953.9453125	0.961153700016439	health	choicePhaseStart	2	113	53	foodImage.63	FOODEEG_Images\0645.jpg	YN	Left	Yes	0.961153700016439	0	488421	253
954.8984375	0	health	response	2	113	53	foodImage.63	FOODEEG_Images\0645.jpg	YN	Left	Yes	0.961153700016439	0	488909	234
955.94140625	1	taste	trialStart	2	114	54	foodImage.29	FOODEEG_Images\0278.jpg	NY	Left	No	2.06845389993396	0	489443	251
956.982421875	2	taste	foodImageDisplay	2	114	54	foodImage.29	FOODEEG_Images\0278.jpg	NY	Left	No	2.06845389993396	0	489976	252
959.046875	2.06845389993396	taste	choicePhaseStart	2	114	54	foodImage.29	FOODEEG_Images\0278.jpg	NY	Left	No	2.06845389993396	0	491033	253
961.10546875	0	taste	response	2	114	54	foodImage.29	FOODEEG_Images\0278.jpg	NY	Left	No	2.06845389993396	0	492087	234
962.1484375	1	taste	trialStart	2	115	55	foodImage.52	FOODEEG_Images\0539.jpg	YN	Left	Yes	0.699763899901882	0	492621	251
963.216796875	2	taste	foodImageDisplay	2	115	55	foodImage.52	FOODEEG_Images\0539.jpg	YN	Left	Yes	0.699763899901882	0	493168	252
965.279296875	0.699763899901882	taste	choicePhaseStart	2	115	55	foodImage.52	FOODEEG_Images\0539.jpg	YN	Left	Yes	0.699763899901882	0	494224	253
965.96875	0	taste	response	2	115	55	foodImage.52	FOODEEG_Images\0539.jpg	YN	Left	Yes	0.699763899901882	0	494577	234
967.013671875	1	taste	trialStart	2	116	56	foodImage.72	FOODEEG_Images\0714.jpg	NY	Left	No	1.40088820003439	0	495112	251
968.056640625	2	taste	foodImageDisplay	2	116	56	foodImage.72	FOODEEG_Images\0714.jpg	NY	Left	No	1.40088820003439	0	495646	252
970.12109375	1.40088820003439	taste	choicePhaseStart	2	116	56	foodImage.72	FOODEEG_Images\0714.jpg	NY	Left	No	1.40088820003439	0	496703	253
971.513671875	0	taste	response	2	116	56	foodImage.72	FOODEEG_Images\0714.jpg	NY	Left	No	1.40088820003439	0	497416	234
972.556640625	1	taste	trialStart	2	117	57	foodImage.1	FOODEEG_Images\0004.jpg	YN	Left	Yes	0.803537099971436	0	497950	251
973.59765625	2	taste	foodImageDisplay	2	117	57	foodImage.1	FOODEEG_Images\0004.jpg	YN	Left	Yes	0.803537099971436	0	498483	252
975.662109375	0.803537099971436	taste	choicePhaseStart	2	117	57	foodImage.1	FOODEEG_Images\0004.jpg	YN	Left	Yes	0.803537099971436	0	499540	253
976.45703125	0	taste	response	2	117	57	foodImage.1	FOODEEG_Images\0004.jpg	YN	Left	Yes	0.803537099971436	0	499947	234
977.501953125	1	decision	trialStart	2	118	58	foodImage.6	FOODEEG_Images\0113.jpg	NY	Right	Yes	0.667785199941136	0	500482	251
978.544921875	2	decision	foodImageDisplay	2	118	58	foodImage.6	FOODEEG_Images\0113.jpg	NY	Right	Yes	0.667785199941136	0	501016	252
980.61328125	0.667785199941136	decision	choicePhaseStart	2	118	58	foodImage.6	FOODEEG_Images\0113.jpg	NY	Right	Yes	0.667785199941136	0	502075	253
981.2734375	0	decision	response	2	118	58	foodImage.6	FOODEEG_Images\0113.jpg	NY	Right	Yes	0.667785199941136	0	502413	235
982.31640625	1	decision	trialStart	2	119	59	foodImage.46	FOODEEG_Images\0479.jpg	NY	Right	Yes	0.734622900024988	0	502947	251
983.373046875	2	decision	foodImageDisplay	2	119	59	foodImage.46	FOODEEG_Images\0479.jpg	NY	Right	Yes	0.734622900024988	0	503488	252
985.435546875	0.734622900024988	decision	choicePhaseStart	2	119	59	foodImage.46	FOODEEG_Images\0479.jpg	NY	Right	Yes	0.734622900024988	0	504544	253
986.16015625	0	decision	response	2	119	59	foodImage.46	FOODEEG_Images\0479.jpg	NY	Right	Yes	0.734622900024988	0	504915	235
987.201171875	1	taste	trialStart	2	120	60	foodImage.35	FOODEEG_Images\0350.jpg	NY	Right	Yes	0.509430499980226	0	505448	251
988.2421875	2	taste	foodImageDisplay	2	120	60	foodImage.35	FOODEEG_Images\0350.jpg	NY	Right	Yes	0.509430499980226	0	505981	252
990.306640625	0.509430499980226	taste	choicePhaseStart	2	120	60	foodImage.35	FOODEEG_Images\0350.jpg	NY	Right	Yes	0.509430499980226	0	507038	253
990.80859375	0	taste	response	2	120	60	foodImage.35	FOODEEG_Images\0350.jpg	NY	Right	Yes	0.509430499980226	0	507295	235
992.8515625	10.96484375	n/a	blockEnd	n/a	n/a	n/a	n/a	n/a	n/a	n/a	n/a	n/a	n/a	508341	254
1003.81640625	2	n/a	blockStart	3	n/a	n/a	n/a	n/a	n/a	n/a	n/a	n/a	n/a	513955	250
1005.84765625	1	health	trialStart	3	121	1	foodImage.50	FOODEEG_Images\0529.jpg	NY	Right	Yes	0.670312099973671	0	514995	251
1006.908203125	2	health	foodImageDisplay	3	121	1	foodImage.50	FOODEEG_Images\0529.jpg	NY	Right	Yes	0.670312099973671	0	515538	252
1008.970703125	0.670312099973671	health	choicePhaseStart	3	121	1	foodImage.50	FOODEEG_Images\0529.jpg	NY	Right	Yes	0.670312099973671	0	516594	253
1009.6328125	0	health	response	3	121	1	foodImage.50	FOODEEG_Images\0529.jpg	NY	Right	Yes	0.670312099973671	0	516933	235
1010.673828125	1	health	trialStart	3	122	2	foodImage.79	FOODEEG_Images\0794.jpg	YN	Left	Yes	0.433668500045314	0	517466	251
1011.724609375	2	health	foodImageDisplay	3	122	2	foodImage.79	FOODEEG_Images\0794.jpg	YN	Left	Yes	0.433668500045314	0	518004	252
1013.7890625	0.433668500045314	health	choicePhaseStart	3	122	2	foodImage.79	FOODEEG_Images\0794.jpg	YN	Left	Yes	0.433668500045314	0	519061	253
1014.216796875	0	health	response	3	122	2	foodImage.79	FOODEEG_Images\0794.jpg	YN	Left	Yes	0.433668500045314	0	519280	234
1015.259765625	1	decision	trialStart	3	123	3	foodImage.39	FOODEEG_Images\0367.jpg	YN	Left	Yes	0.65280379995238	0	519814	251
1016.298828125	2	decision	foodImageDisplay	3	123	3	foodImage.39	FOODEEG_Images\0367.jpg	YN	Left	Yes	0.65280379995238	0	520346	252
1018.361328125	0.65280379995238	decision	choicePhaseStart	3	123	3	foodImage.39	FOODEEG_Images\0367.jpg	YN	Left	Yes	0.65280379995238	0	521402	253
1019.0078125	0	decision	response	3	123	3	foodImage.39	FOODEEG_Images\0367.jpg	YN	Left	Yes	0.65280379995238	0	521733	234
1020.0703125	1	taste	trialStart	3	124	4	foodImage.86	FOODEEG_Images\0844.jpg	YN	Left	Yes	0.529612799989991	0	522277	251
1021.154296875	2	taste	foodImageDisplay	3	124	4	foodImage.86	FOODEEG_Images\0844.jpg	YN	Left	Yes	0.529612799989991	0	522832	252
1023.216796875	0.529612799989991	taste	choicePhaseStart	3	124	4	foodImage.86	FOODEEG_Images\0844.jpg	YN	Left	Yes	0.529612799989991	0	523888	253
1023.736328125	0	taste	response	3	124	4	foodImage.86	FOODEEG_Images\0844.jpg	YN	Left	Yes	0.529612799989991	0	524154	234
1024.775390625	1	decision	trialStart	3	125	5	foodImage.25	FOODEEG_Images\0261.jpg	YN	Left	Yes	0.62315200001467	0	524686	251
1025.818359375	2	decision	foodImageDisplay	3	125	5	foodImage.25	FOODEEG_Images\0261.jpg	YN	Left	Yes	0.62315200001467	0	525220	252
1027.880859375	0.62315200001467	decision	choicePhaseStart	3	125	5	foodImage.25	FOODEEG_Images\0261.jpg	YN	Left	Yes	0.62315200001467	0	526276	253
1028.49609375	0	decision	response	3	125	5	foodImage.25	FOODEEG_Images\0261.jpg	YN	Left	Yes	0.62315200001467	0	526591	234
1029.5390625	1	decision	trialStart	3	126	6	foodImage.80	FOODEEG_Images\0796.jpg	NY	Right	Yes	0.56198110000696	0	527125	251
1030.599609375	2	decision	foodImageDisplay	3	126	6	foodImage.80	FOODEEG_Images\0796.jpg	NY	Right	Yes	0.56198110000696	0	527668	252
1032.66796875	0.56198110000696	decision	choicePhaseStart	3	126	6	foodImage.80	FOODEEG_Images\0796.jpg	NY	Right	Yes	0.56198110000696	0	528727	253
1033.22265625	0	decision	response	3	126	6	foodImage.80	FOODEEG_Images\0796.jpg	NY	Right	Yes	0.56198110000696	0	529011	235
1034.265625	1	health	trialStart	3	127	7	foodImage.120	FOODEEG_Images\0928.jpg	NY	Left	No	0.782236400060356	0	529545	251
1035.314453125	2	health	foodImageDisplay	3	127	7	foodImage.120	FOODEEG_Images\0928.jpg	NY	Left	No	0.782236400060356	0	530082	252
1037.37890625	0.782236400060356	health	choicePhaseStart	3	127	7	foodImage.120	FOODEEG_Images\0928.jpg	NY	Left	No	0.782236400060356	0	531139	253
1038.150390625	0	health	response	3	127	7	foodImage.120	FOODEEG_Images\0928.jpg	NY	Left	No	0.782236400060356	0	531534	234
1039.201171875	1	health	trialStart	3	128	8	foodImage.1	FOODEEG_Images\0004.jpg	NY	Left	No	1.18068170000333	0	532072	251
1040.2421875	2	health	foodImageDisplay	3	128	8	foodImage.1	FOODEEG_Images\0004.jpg	NY	Left	No	1.18068170000333	0	532605	252
1042.306640625	1.18068170000333	health	choicePhaseStart	3	128	8	foodImage.1	FOODEEG_Images\0004.jpg	NY	Left	No	1.18068170000333	0	533662	253
1043.478515625	0	health	response	3	128	8	foodImage.1	FOODEEG_Images\0004.jpg	NY	Left	No	1.18068170000333	0	534262	234
1044.521484375	1	health	trialStart	3	129	9	foodImage.82	FOODEEG_Images\0805.jpg	YN	Left	Yes	1.10851309995633	0	534796	251
1045.60546875	2	health	foodImageDisplay	3	129	9	foodImage.82	FOODEEG_Images\0805.jpg	YN	Left	Yes	1.10851309995633	0	535351	252
1047.673828125	1.10851309995633	health	choicePhaseStart	3	129	9	foodImage.82	FOODEEG_Images\0805.jpg	YN	Left	Yes	1.10851309995633	0	536410	253
1048.775390625	0	health	response	3	129	9	foodImage.82	FOODEEG_Images\0805.jpg	YN	Left	Yes	1.10851309995633	0	536974	234
1049.818359375	1	decision	trialStart	3	130	10	foodImage.32	FOODEEG_Images\0319.jpg	NY	Right	Yes	0.665321699925698	0	537508	251
1050.86328125	2	decision	foodImageDisplay	3	130	10	foodImage.32	FOODEEG_Images\0319.jpg	NY	Right	Yes	0.665321699925698	0	538043	252
1052.92578125	0.665321699925698	decision	choicePhaseStart	3	130	10	foodImage.32	FOODEEG_Images\0319.jpg	NY	Right	Yes	0.665321699925698	0	539099	253
1053.58203125	0	decision	response	3	130	10	foodImage.32	FOODEEG_Images\0319.jpg	NY	Right	Yes	0.665321699925698	0	539435	235
1054.626953125	1	taste	trialStart	3	131	11	foodImage.64	FOODEEG_Images\0647.jpg	YN	Right	No	0.94588879996445	0	539970	251
1055.6875	2	taste	foodImageDisplay	3	131	11	foodImage.64	FOODEEG_Images\0647.jpg	YN	Right	No	0.94588879996445	0	540513	252
1057.755859375	0.94588879996445	taste	choicePhaseStart	3	131	11	foodImage.64	FOODEEG_Images\0647.jpg	YN	Right	No	0.94588879996445	0	541572	253
1058.6953125	0	taste	response	3	131	11	foodImage.64	FOODEEG_Images\0647.jpg	YN	Right	No	0.94588879996445	0	542053	235
1059.73828125	1	taste	trialStart	3	132	12	foodImage.104	FOODEEG_Images\0912.jpg	NY	Right	Yes	0.551026199944317	0	542587	251
1060.779296875	2	taste	foodImageDisplay	3	132	12	foodImage.104	FOODEEG_Images\0912.jpg	NY	Right	Yes	0.551026199944317	0	543120	252
1062.84765625	0.551026199944317	taste	choicePhaseStart	3	132	12	foodImage.104	FOODEEG_Images\0912.jpg	NY	Right	Yes	0.551026199944317	0	544179	253
1063.390625	0	taste	response	3	132	12	foodImage.104	FOODEEG_Images\0912.jpg	NY	Right	Yes	0.551026199944317	0	544457	235
1064.4375	1	decision	trialStart	3	133	13	foodImage.113	FOODEEG_Images\0921.jpg	YN	Right	No	0.592376199900173	0	544993	251
1065.494140625	2	decision	foodImageDisplay	3	133	13	foodImage.113	FOODEEG_Images\0921.jpg	YN	Right	No	0.592376199900173	0	545534	252
1067.55859375	0.592376199900173	decision	choicePhaseStart	3	133	13	foodImage.113	FOODEEG_Images\0921.jpg	YN	Right	No	0.592376199900173	0	546591	253
1068.142578125	0	decision	response	3	133	13	foodImage.113	FOODEEG_Images\0921.jpg	YN	Right	No	0.592376199900173	0	546890	235
1069.189453125	1	taste	trialStart	3	134	14	foodImage.78	FOODEEG_Images\0787.jpg	YN	Right	No	0.852905999985524	0	547426	251
1070.234375	2	taste	foodImageDisplay	3	134	14	foodImage.78	FOODEEG_Images\0787.jpg	YN	Right	No	0.852905999985524	0	547961	252
1072.296875	0.852905999985524	taste	choicePhaseStart	3	134	14	foodImage.78	FOODEEG_Images\0787.jpg	YN	Right	No	0.852905999985524	0	549017	253
1073.142578125	0	taste	response	3	134	14	foodImage.78	FOODEEG_Images\0787.jpg	YN	Right	No	0.852905999985524	0	549450	235
1074.18359375	1	health	trialStart	3	135	15	foodImage.75	FOODEEG_Images\0763.jpg	NY	Right	Yes	0.778422000003047	0	549983	251
1075.228515625	2	health	foodImageDisplay	3	135	15	foodImage.75	FOODEEG_Images\0763.jpg	NY	Right	Yes	0.778422000003047	0	550518	252
1077.29296875	0.778422000003047	health	choicePhaseStart	3	135	15	foodImage.75	FOODEEG_Images\0763.jpg	NY	Right	Yes	0.778422000003047	0	551575	253
1078.0625	0	health	response	3	135	15	foodImage.75	FOODEEG_Images\0763.jpg	NY	Right	Yes	0.778422000003047	0	551969	235
1079.10546875	1	decision	trialStart	3	136	16	foodImage.110	FOODEEG_Images\0918.jpg	NY	Left	No	0.948591200052761	0	552503	251
1080.15625	2	decision	foodImageDisplay	3	136	16	foodImage.110	FOODEEG_Images\0918.jpg	NY	Left	No	0.948591200052761	0	553041	252
1082.21875	0.948591200052761	decision	choicePhaseStart	3	136	16	foodImage.110	FOODEEG_Images\0918.jpg	NY	Left	No	0.948591200052761	0	554097	253
1083.158203125	0	decision	response	3	136	16	foodImage.110	FOODEEG_Images\0918.jpg	NY	Left	No	0.948591200052761	0	554578	234
1084.201171875	1	health	trialStart	3	137	17	foodImage.71	FOODEEG_Images\0713.jpg	NY	Left	No	1.39733119995799	0	555112	251
1085.244140625	2	health	foodImageDisplay	3	137	17	foodImage.71	FOODEEG_Images\0713.jpg	NY	Left	No	1.39733119995799	0	555646	252
1087.3046875	1.39733119995799	health	choicePhaseStart	3	137	17	foodImage.71	FOODEEG_Images\0713.jpg	NY	Left	No	1.39733119995799	0	556701	253
1088.693359375	0	health	response	3	137	17	foodImage.71	FOODEEG_Images\0713.jpg	NY	Left	No	1.39733119995799	0	557412	234
1089.736328125	1	decision	trialStart	3	138	18	foodImage.35	FOODEEG_Images\0350.jpg	NY	Right	Yes	0.901662399992347	0	557946	251
1090.77734375	2	decision	foodImageDisplay	3	138	18	foodImage.35	FOODEEG_Images\0350.jpg	NY	Right	Yes	0.901662399992347	0	558479	252
1092.841796875	0.901662399992347	decision	choicePhaseStart	3	138	18	foodImage.35	FOODEEG_Images\0350.jpg	NY	Right	Yes	0.901662399992347	0	559536	253
1093.732421875	0	decision	response	3	138	18	foodImage.35	FOODEEG_Images\0350.jpg	NY	Right	Yes	0.901662399992347	0	559992	235
1094.77734375	1	health	trialStart	3	139	19	foodImage.37	FOODEEG_Images\0359.jpg	YN	Left	Yes	0.588264200021513	0	560527	251
1095.818359375	2	health	foodImageDisplay	3	139	19	foodImage.37	FOODEEG_Images\0359.jpg	YN	Left	Yes	0.588264200021513	0	561060	252
1097.8828125	0.588264200021513	health	choicePhaseStart	3	139	19	foodImage.37	FOODEEG_Images\0359.jpg	YN	Left	Yes	0.588264200021513	0	562117	253
1098.4609375	0	health	response	3	139	19	foodImage.37	FOODEEG_Images\0359.jpg	YN	Left	Yes	0.588264200021513	0	562413	234
1099.505859375	1	health	trialStart	3	140	20	foodImage.61	FOODEEG_Images\0640.jpg	YN	Left	Yes	0.569309399928898	0	562948	251
1100.548828125	2	health	foodImageDisplay	3	140	20	foodImage.61	FOODEEG_Images\0640.jpg	YN	Left	Yes	0.569309399928898	0	563482	252
1102.61328125	0.569309399928898	health	choicePhaseStart	3	140	20	foodImage.61	FOODEEG_Images\0640.jpg	YN	Left	Yes	0.569309399928898	0	564539	253
1103.173828125	0	health	response	3	140	20	foodImage.61	FOODEEG_Images\0640.jpg	YN	Left	Yes	0.569309399928898	0	564826	234
1104.21484375	1	health	trialStart	3	141	21	foodImage.62	FOODEEG_Images\0644.jpg	YN	Left	Yes	0.7325805000728	0	565359	251
1105.275390625	2	health	foodImageDisplay	3	141	21	foodImage.62	FOODEEG_Images\0644.jpg	YN	Left	Yes	0.7325805000728	0	565902	252
1107.34375	0.7325805000728	health	choicePhaseStart	3	141	21	foodImage.62	FOODEEG_Images\0644.jpg	YN	Left	Yes	0.7325805000728	0	566961	253
1108.068359375	0	health	response	3	141	21	foodImage.62	FOODEEG_Images\0644.jpg	YN	Left	Yes	0.7325805000728	0	567332	234
1109.11328125	1	health	trialStart	3	142	22	foodImage.99	FOODEEG_Images\0907.jpg	YN	Left	Yes	0.582556499983184	0	567867	251
1110.15234375	2	health	foodImageDisplay	3	142	22	foodImage.99	FOODEEG_Images\0907.jpg	YN	Left	Yes	0.582556499983184	0	568399	252
1112.216796875	0.582556499983184	health	choicePhaseStart	3	142	22	foodImage.99	FOODEEG_Images\0907.jpg	YN	Left	Yes	0.582556499983184	0	569456	253
1112.7890625	0	health	response	3	142	22	foodImage.99	FOODEEG_Images\0907.jpg	YN	Left	Yes	0.582556499983184	0	569749	234
1113.83203125	1	health	trialStart	3	143	23	foodImage.66	FOODEEG_Images\0676.jpg	YN	Right	No	0.842272899928503	0	570283	251
1114.875	2	health	foodImageDisplay	3	143	23	foodImage.66	FOODEEG_Images\0676.jpg	YN	Right	No	0.842272899928503	0	570817	252
1116.9375	0.842272899928503	health	choicePhaseStart	3	143	23	foodImage.66	FOODEEG_Images\0676.jpg	YN	Right	No	0.842272899928503	0	571873	253
1117.7734375	0	health	response	3	143	23	foodImage.66	FOODEEG_Images\0676.jpg	YN	Right	No	0.842272899928503	0	572301	235
1118.81640625	1	health	trialStart	3	144	24	foodImage.110	FOODEEG_Images\0918.jpg	NY	Left	No	0.873631799942814	0	572835	251
1119.853515625	2	health	foodImageDisplay	3	144	24	foodImage.110	FOODEEG_Images\0918.jpg	NY	Left	No	0.873631799942814	0	573366	252
1121.916015625	0.873631799942814	health	choicePhaseStart	3	144	24	foodImage.110	FOODEEG_Images\0918.jpg	NY	Left	No	0.873631799942814	0	574422	253
1122.78125	0	health	response	3	144	24	foodImage.110	FOODEEG_Images\0918.jpg	NY	Left	No	0.873631799942814	0	574865	234
1123.822265625	1	taste	trialStart	3	145	25	foodImage.102	FOODEEG_Images\0910.jpg	YN	Right	No	0.652457199990749	0	575398	251
1124.86328125	2	taste	foodImageDisplay	3	145	25	foodImage.102	FOODEEG_Images\0910.jpg	YN	Right	No	0.652457199990749	0	575931	252
1126.927734375	0.652457199990749	taste	choicePhaseStart	3	145	25	foodImage.102	FOODEEG_Images\0910.jpg	YN	Right	No	0.652457199990749	0	576988	253
1127.572265625	0	taste	response	3	145	25	foodImage.102	FOODEEG_Images\0910.jpg	YN	Right	No	0.652457199990749	0	577318	235
1128.615234375	1	health	trialStart	3	146	26	foodImage.116	FOODEEG_Images\0924.jpg	NY	Left	No	0.699421099969186	0	577852	251
1129.658203125	2	health	foodImageDisplay	3	146	26	foodImage.116	FOODEEG_Images\0924.jpg	NY	Left	No	0.699421099969186	0	578386	252
1131.728515625	0.699421099969186	health	choicePhaseStart	3	146	26	foodImage.116	FOODEEG_Images\0924.jpg	NY	Left	No	0.699421099969186	0	579446	253
1132.419921875	0	health	response	3	146	26	foodImage.116	FOODEEG_Images\0924.jpg	NY	Left	No	0.699421099969186	0	579800	234
1133.462890625	1	decision	trialStart	3	147	27	foodImage.71	FOODEEG_Images\0713.jpg	NY	Right	Yes	1.16248469997663	0	580334	251
1134.505859375	2	decision	foodImageDisplay	3	147	27	foodImage.71	FOODEEG_Images\0713.jpg	NY	Right	Yes	1.16248469997663	0	580868	252
1136.5703125	1.16248469997663	decision	choicePhaseStart	3	147	27	foodImage.71	FOODEEG_Images\0713.jpg	NY	Right	Yes	1.16248469997663	0	581925	253
1137.724609375	0	decision	response	3	147	27	foodImage.71	FOODEEG_Images\0713.jpg	NY	Right	Yes	1.16248469997663	0	582516	235
1138.767578125	1	taste	trialStart	3	148	28	foodImage.75	FOODEEG_Images\0763.jpg	YN	Right	No	0.752095500007272	0	583050	251
1139.8125	2	taste	foodImageDisplay	3	148	28	foodImage.75	FOODEEG_Images\0763.jpg	YN	Right	No	0.752095500007272	0	583585	252
1141.876953125	0.752095500007272	taste	choicePhaseStart	3	148	28	foodImage.75	FOODEEG_Images\0763.jpg	YN	Right	No	0.752095500007272	0	584642	253
1142.619140625	0	taste	response	3	148	28	foodImage.75	FOODEEG_Images\0763.jpg	YN	Right	No	0.752095500007272	0	585022	235
1143.66015625	1	decision	trialStart	3	149	29	foodImage.89	FOODEEG_Images\0881.jpg	YN	Left	Yes	0.593597500002943	0	585555	251
1144.71484375	2	decision	foodImageDisplay	3	149	29	foodImage.89	FOODEEG_Images\0881.jpg	YN	Left	Yes	0.593597500002943	0	586095	252
1146.779296875	0.593597500002943	decision	choicePhaseStart	3	149	29	foodImage.89	FOODEEG_Images\0881.jpg	YN	Left	Yes	0.593597500002943	0	587152	253
1147.36328125	0	decision	response	3	149	29	foodImage.89	FOODEEG_Images\0881.jpg	YN	Left	Yes	0.593597500002943	0	587451	234
1148.408203125	1	taste	trialStart	3	150	30	foodImage.32	FOODEEG_Images\0319.jpg	NY	Right	Yes	0.720098700025119	0	587986	251
1149.44921875	2	taste	foodImageDisplay	3	150	30	foodImage.32	FOODEEG_Images\0319.jpg	NY	Right	Yes	0.720098700025119	0	588519	252
1151.515625	0.720098700025119	taste	choicePhaseStart	3	150	30	foodImage.32	FOODEEG_Images\0319.jpg	NY	Right	Yes	0.720098700025119	0	589577	253
1152.228515625	0	taste	response	3	150	30	foodImage.32	FOODEEG_Images\0319.jpg	NY	Right	Yes	0.720098700025119	0	589942	235
1153.271484375	1	taste	trialStart	3	151	31	foodImage.68	FOODEEG_Images\0685.jpg	YN	Left	Yes	0.541477199993096	0	590476	251
1154.3515625	2	taste	foodImageDisplay	3	151	31	foodImage.68	FOODEEG_Images\0685.jpg	YN	Left	Yes	0.541477199993096	0	591029	252
1156.421875	0.541477199993096	taste	choicePhaseStart	3	151	31	foodImage.68	FOODEEG_Images\0685.jpg	YN	Left	Yes	0.541477199993096	0	592089	253
1156.955078125	0	taste	response	3	151	31	foodImage.68	FOODEEG_Images\0685.jpg	YN	Left	Yes	0.541477199993096	0	592362	234
1157.998046875	1	decision	trialStart	3	152	32	foodImage.9	FOODEEG_Images\0138.jpg	NY	Right	Yes	0.638952699955553	0	592896	251
1159.05859375	2	decision	foodImageDisplay	3	152	32	foodImage.9	FOODEEG_Images\0138.jpg	NY	Right	Yes	0.638952699955553	0	593439	252
1161.125	0.638952699955553	decision	choicePhaseStart	3	152	32	foodImage.9	FOODEEG_Images\0138.jpg	NY	Right	Yes	0.638952699955553	0	594497	253
1161.755859375	0	decision	response	3	152	32	foodImage.9	FOODEEG_Images\0138.jpg	NY	Right	Yes	0.638952699955553	0	594820	235
1162.796875	1	taste	trialStart	3	153	33	foodImage.120	FOODEEG_Images\0928.jpg	YN	Right	No	0.480361699941568	0	595353	251
1163.8359375	2	taste	foodImageDisplay	3	153	33	foodImage.120	FOODEEG_Images\0928.jpg	YN	Right	No	0.480361699941568	0	595885	252
1165.900390625	0.480361699941568	taste	choicePhaseStart	3	153	33	foodImage.120	FOODEEG_Images\0928.jpg	YN	Right	No	0.480361699941568	0	596942	253
1166.37109375	0	taste	response	3	153	33	foodImage.120	FOODEEG_Images\0928.jpg	YN	Right	No	0.480361699941568	0	597183	235
1167.416015625	1	health	trialStart	3	154	34	foodImage.15	FOODEEG_Images\0189.jpg	YN	Left	Yes	0.568940199911594	0	597718	251
1168.474609375	2	health	foodImageDisplay	3	154	34	foodImage.15	FOODEEG_Images\0189.jpg	YN	Left	Yes	0.568940199911594	0	598260	252
1170.54296875	0.568940199911594	health	choicePhaseStart	3	154	34	foodImage.15	FOODEEG_Images\0189.jpg	YN	Left	Yes	0.568940199911594	0	599319	253
1171.107421875	0	health	response	3	154	34	foodImage.15	FOODEEG_Images\0189.jpg	YN	Left	Yes	0.568940199911594	0	599608	234
1172.150390625	1	decision	trialStart	3	155	35	foodImage.111	FOODEEG_Images\0919.jpg	YN	Right	No	0.694194999989122	0	600142	251
1173.189453125	2	decision	foodImageDisplay	3	155	35	foodImage.111	FOODEEG_Images\0919.jpg	YN	Right	No	0.694194999989122	0	600674	252
1175.25390625	0.694194999989122	decision	choicePhaseStart	3	155	35	foodImage.111	FOODEEG_Images\0919.jpg	YN	Right	No	0.694194999989122	0	601731	253
1175.939453125	0	decision	response	3	155	35	foodImage.111	FOODEEG_Images\0919.jpg	YN	Right	No	0.694194999989122	0	602082	235
1176.986328125	1	health	trialStart	3	156	36	foodImage.76	FOODEEG_Images\0766.jpg	NY	Right	Yes	2.17922449996695	0	602618	251
1178.033203125	2	health	foodImageDisplay	3	156	36	foodImage.76	FOODEEG_Images\0766.jpg	NY	Right	Yes	2.17922449996695	0	603154	252
1180.09765625	2.17922449996695	health	choicePhaseStart	3	156	36	foodImage.76	FOODEEG_Images\0766.jpg	NY	Right	Yes	2.17922449996695	0	604211	253
1182.267578125	0	health	response	3	156	36	foodImage.76	FOODEEG_Images\0766.jpg	NY	Right	Yes	2.17922449996695	0	605322	235
1183.310546875	1	health	trialStart	3	157	37	foodImage.5	FOODEEG_Images\0107.jpg	NY	Left	No	0.71369899995625	0	605856	251
1184.369140625	2	health	foodImageDisplay	3	157	37	foodImage.5	FOODEEG_Images\0107.jpg	NY	Left	No	0.71369899995625	0	606398	252
1186.43359375	0.71369899995625	health	choicePhaseStart	3	157	37	foodImage.5	FOODEEG_Images\0107.jpg	NY	Left	No	0.71369899995625	0	607455	253
1187.138671875	0	health	response	3	157	37	foodImage.5	FOODEEG_Images\0107.jpg	NY	Left	No	0.71369899995625	0	607816	234
1188.181640625	1	health	trialStart	3	158	38	foodImage.106	FOODEEG_Images\0914.jpg	NY	Left	No	0.859763099928387	0	608350	251
1189.220703125	2	health	foodImageDisplay	3	158	38	foodImage.106	FOODEEG_Images\0914.jpg	NY	Left	No	0.859763099928387	0	608882	252
1191.287109375	0.859763099928387	health	choicePhaseStart	3	158	38	foodImage.106	FOODEEG_Images\0914.jpg	NY	Left	No	0.859763099928387	0	609940	253
1192.138671875	0	health	response	3	158	38	foodImage.106	FOODEEG_Images\0914.jpg	NY	Left	No	0.859763099928387	0	610376	234
1193.181640625	1	health	trialStart	3	159	39	foodImage.47	FOODEEG_Images\0488.jpg	YN	Right	No	0.980159099912271	0	610910	251
1194.22265625	2	health	foodImageDisplay	3	159	39	foodImage.47	FOODEEG_Images\0488.jpg	YN	Right	No	0.980159099912271	0	611443	252
1196.287109375	0.980159099912271	health	choicePhaseStart	3	159	39	foodImage.47	FOODEEG_Images\0488.jpg	YN	Right	No	0.980159099912271	0	612500	253
1197.2578125	0	health	response	3	159	39	foodImage.47	FOODEEG_Images\0488.jpg	YN	Right	No	0.980159099912271	0	612997	235
1198.30078125	1	health	trialStart	3	160	40	foodImage.91	FOODEEG_Images\0896.jpg	YN	Left	Yes	1.10622990003321	0	613531	251
1199.36328125	2	health	foodImageDisplay	3	160	40	foodImage.91	FOODEEG_Images\0896.jpg	YN	Left	Yes	1.10622990003321	0	614075	252
1201.42578125	1.10622990003321	health	choicePhaseStart	3	160	40	foodImage.91	FOODEEG_Images\0896.jpg	YN	Left	Yes	1.10622990003321	0	615131	253
1202.521484375	0	health	response	3	160	40	foodImage.91	FOODEEG_Images\0896.jpg	YN	Left	Yes	1.10622990003321	0	615692	234
1203.56640625	1	decision	trialStart	3	161	41	foodImage.44	FOODEEG_Images\0459.jpg	YN	Left	Yes	1.53393749997485	0	616227	251
1204.61328125	2	decision	foodImageDisplay	3	161	41	foodImage.44	FOODEEG_Images\0459.jpg	YN	Left	Yes	1.53393749997485	0	616763	252
1206.677734375	1.53393749997485	decision	choicePhaseStart	3	161	41	foodImage.44	FOODEEG_Images\0459.jpg	YN	Left	Yes	1.53393749997485	0	617820	253
1208.201171875	0	decision	response	3	161	41	foodImage.44	FOODEEG_Images\0459.jpg	YN	Left	Yes	1.53393749997485	0	618600	234
1209.25	1	decision	trialStart	3	162	42	foodImage.31	FOODEEG_Images\0294.jpg	NY	Right	Yes	0.728379500098526	0	619137	251
1210.29296875	2	decision	foodImageDisplay	3	162	42	foodImage.31	FOODEEG_Images\0294.jpg	NY	Right	Yes	0.728379500098526	0	619671	252
1212.359375	0.728379500098526	decision	choicePhaseStart	3	162	42	foodImage.31	FOODEEG_Images\0294.jpg	NY	Right	Yes	0.728379500098526	0	620729	253
1213.08203125	0	decision	response	3	162	42	foodImage.31	FOODEEG_Images\0294.jpg	NY	Right	Yes	0.728379500098526	0	621099	235
1214.125	1	health	trialStart	3	163	43	foodImage.117	FOODEEG_Images\0925.jpg	NY	Left	No	1.20023299998138	0	621633	251
1215.1796875	2	health	foodImageDisplay	3	163	43	foodImage.117	FOODEEG_Images\0925.jpg	NY	Left	No	1.20023299998138	0	622173	252
1217.2421875	1.20023299998138	health	choicePhaseStart	3	163	43	foodImage.117	FOODEEG_Images\0925.jpg	NY	Left	No	1.20023299998138	0	623229	253
1218.43359375	0	health	response	3	163	43	foodImage.117	FOODEEG_Images\0925.jpg	NY	Left	No	1.20023299998138	0	623839	234
1219.474609375	1	taste	trialStart	3	164	44	foodImage.67	FOODEEG_Images\0679.jpg	NY	Right	Yes	0.874131700024009	0	624372	251
1220.544921875	2	taste	foodImageDisplay	3	164	44	foodImage.67	FOODEEG_Images\0679.jpg	NY	Right	Yes	0.874131700024009	0	624920	252
1222.609375	0.874131700024009	taste	choicePhaseStart	3	164	44	foodImage.67	FOODEEG_Images\0679.jpg	NY	Right	Yes	0.874131700024009	0	625977	253
1223.47265625	0	taste	response	3	164	44	foodImage.67	FOODEEG_Images\0679.jpg	NY	Right	Yes	0.874131700024009	0	626419	235
1224.51953125	1	taste	trialStart	3	165	45	foodImage.38	FOODEEG_Images\0365.jpg	YN	Left	Yes	0.826104300096631	0	626955	251
1225.556640625	2	taste	foodImageDisplay	3	165	45	foodImage.38	FOODEEG_Images\0365.jpg	YN	Left	Yes	0.826104300096631	0	627486	252
1227.623046875	0.826104300096631	taste	choicePhaseStart	3	165	45	foodImage.38	FOODEEG_Images\0365.jpg	YN	Left	Yes	0.826104300096631	0	628544	253
1228.44140625	0	taste	response	3	165	45	foodImage.38	FOODEEG_Images\0365.jpg	YN	Left	Yes	0.826104300096631	0	628963	234
1229.482421875	1	decision	trialStart	3	166	46	foodImage.116	FOODEEG_Images\0924.jpg	NY	Right	Yes	0.794376499950886	0	629496	251
1230.521484375	2	decision	foodImageDisplay	3	166	46	foodImage.116	FOODEEG_Images\0924.jpg	NY	Right	Yes	0.794376499950886	0	630028	252
1232.583984375	0.794376499950886	decision	choicePhaseStart	3	166	46	foodImage.116	FOODEEG_Images\0924.jpg	NY	Right	Yes	0.794376499950886	0	631084	253
1233.369140625	0	decision	response	3	166	46	foodImage.116	FOODEEG_Images\0924.jpg	NY	Right	Yes	0.794376499950886	0	631486	235
1234.412109375	1	taste	trialStart	3	167	47	foodImage.90	FOODEEG_Images\0890.jpg	YN	Right	No	1.50814239995088	0	632020	251
1235.46875	2	taste	foodImageDisplay	3	167	47	foodImage.90	FOODEEG_Images\0890.jpg	YN	Right	No	1.50814239995088	0	632561	252
1237.533203125	1.50814239995088	taste	choicePhaseStart	3	167	47	foodImage.90	FOODEEG_Images\0890.jpg	YN	Right	No	1.50814239995088	0	633618	253
1239.033203125	0	taste	response	3	167	47	foodImage.90	FOODEEG_Images\0890.jpg	YN	Right	No	1.50814239995088	0	634386	235
1240.078125	1	health	trialStart	3	168	48	foodImage.13	FOODEEG_Images\0183.jpg	NY	Right	Yes	1.63787119998597	0	634921	251
1241.126953125	2	health	foodImageDisplay	3	168	48	foodImage.13	FOODEEG_Images\0183.jpg	NY	Right	Yes	1.63787119998597	0	635458	252
1243.189453125	1.63787119998597	health	choicePhaseStart	3	168	48	foodImage.13	FOODEEG_Images\0183.jpg	NY	Right	Yes	1.63787119998597	0	636514	253
1244.81640625	0	health	response	3	168	48	foodImage.13	FOODEEG_Images\0183.jpg	NY	Right	Yes	1.63787119998597	0	637347	235
1245.861328125	1	taste	trialStart	3	169	49	foodImage.97	FOODEEG_Images\0905.jpg	YN	Right	No	0.678917100070976	0	637882	251
1246.900390625	2	taste	foodImageDisplay	3	169	49	foodImage.97	FOODEEG_Images\0905.jpg	YN	Right	No	0.678917100070976	0	638414	252
1248.962890625	0.678917100070976	taste	choicePhaseStart	3	169	49	foodImage.97	FOODEEG_Images\0905.jpg	YN	Right	No	0.678917100070976	0	639470	253
1249.6328125	0	taste	response	3	169	49	foodImage.97	FOODEEG_Images\0905.jpg	YN	Right	No	0.678917100070976	0	639813	235
1250.677734375	1	health	trialStart	3	170	50	foodImage.94	FOODEEG_Images\0902.jpg	NY	Left	No	1.31762449990492	0	640348	251
1251.71484375	2	health	foodImageDisplay	3	170	50	foodImage.94	FOODEEG_Images\0902.jpg	NY	Left	No	1.31762449990492	0	640879	252
1253.779296875	1.31762449990492	health	choicePhaseStart	3	170	50	foodImage.94	FOODEEG_Images\0902.jpg	NY	Left	No	1.31762449990492	0	641936	253
1255.087890625	0	health	response	3	170	50	foodImage.94	FOODEEG_Images\0902.jpg	NY	Left	No	1.31762449990492	0	642606	234
1256.1328125	1	health	trialStart	3	171	51	foodImage.17	FOODEEG_Images\0199.jpg	NY	Right	Yes	0.661540699889883	0	643141	251
1257.173828125	2	health	foodImageDisplay	3	171	51	foodImage.17	FOODEEG_Images\0199.jpg	NY	Right	Yes	0.661540699889883	0	643674	252
1259.236328125	0.661540699889883	health	choicePhaseStart	3	171	51	foodImage.17	FOODEEG_Images\0199.jpg	NY	Right	Yes	0.661540699889883	0	644730	253
1259.888671875	0	health	response	3	171	51	foodImage.17	FOODEEG_Images\0199.jpg	NY	Right	Yes	0.661540699889883	0	645064	235
1260.931640625	1	health	trialStart	3	172	52	foodImage.58	FOODEEG_Images\0605.jpg	YN	Left	Yes	1.2028853999218	0	645598	251
1262.015625	2	health	foodImageDisplay	3	172	52	foodImage.58	FOODEEG_Images\0605.jpg	YN	Left	Yes	1.2028853999218	0	646153	252
1264.0859375	1.2028853999218	health	choicePhaseStart	3	172	52	foodImage.58	FOODEEG_Images\0605.jpg	YN	Left	Yes	1.2028853999218	0	647213	253
1265.279296875	0	health	response	3	172	52	foodImage.58	FOODEEG_Images\0605.jpg	YN	Left	Yes	1.2028853999218	0	647824	234
1266.32421875	1	decision	trialStart	3	173	53	foodImage.52	FOODEEG_Images\0539.jpg	NY	Right	Yes	0.821315700071864	0	648359	251
1267.380859375	2	decision	foodImageDisplay	3	173	53	foodImage.52	FOODEEG_Images\0539.jpg	NY	Right	Yes	0.821315700071864	0	648900	252
1269.443359375	0.821315700071864	decision	choicePhaseStart	3	173	53	foodImage.52	FOODEEG_Images\0539.jpg	NY	Right	Yes	0.821315700071864	0	649956	253
1270.255859375	0	decision	response	3	173	53	foodImage.52	FOODEEG_Images\0539.jpg	NY	Right	Yes	0.821315700071864	0	650372	235
1271.3046875	1	health	trialStart	3	174	54	foodImage.95	FOODEEG_Images\0903.jpg	YN	Right	No	0.619253799901344	0	650909	251
1272.34375	2	health	foodImageDisplay	3	174	54	foodImage.95	FOODEEG_Images\0903.jpg	YN	Right	No	0.619253799901344	0	651441	252
1274.40625	0.619253799901344	health	choicePhaseStart	3	174	54	foodImage.95	FOODEEG_Images\0903.jpg	YN	Right	No	0.619253799901344	0	652497	253
1275.015625	0	health	response	3	174	54	foodImage.95	FOODEEG_Images\0903.jpg	YN	Right	No	0.619253799901344	0	652809	235
1276.060546875	1	taste	trialStart	3	175	55	foodImage.94	FOODEEG_Images\0902.jpg	YN	Right	No	1.08355290000327	0	653344	251
1277.099609375	2	taste	foodImageDisplay	3	175	55	foodImage.94	FOODEEG_Images\0902.jpg	YN	Right	No	1.08355290000327	0	653876	252
1279.1640625	1.08355290000327	taste	choicePhaseStart	3	175	55	foodImage.94	FOODEEG_Images\0902.jpg	YN	Right	No	1.08355290000327	0	654933	253
1280.240234375	0	taste	response	3	175	55	foodImage.94	FOODEEG_Images\0902.jpg	YN	Right	No	1.08355290000327	0	655484	235
1281.283203125	1	health	trialStart	3	176	56	foodImage.80	FOODEEG_Images\0796.jpg	YN	Left	Yes	0.589575699996203	0	656018	251
1282.341796875	2	health	foodImageDisplay	3	176	56	foodImage.80	FOODEEG_Images\0796.jpg	YN	Left	Yes	0.589575699996203	0	656560	252
1284.408203125	0.589575699996203	health	choicePhaseStart	3	176	56	foodImage.80	FOODEEG_Images\0796.jpg	YN	Left	Yes	0.589575699996203	0	657618	253
1284.9921875	0	health	response	3	176	56	foodImage.80	FOODEEG_Images\0796.jpg	YN	Left	Yes	0.589575699996203	0	657917	234
1286.03515625	1	taste	trialStart	3	177	57	foodImage.14	FOODEEG_Images\0188.jpg	YN	Left	Yes	0.818882800056599	0	658451	251
1287.09375	2	taste	foodImageDisplay	3	177	57	foodImage.14	FOODEEG_Images\0188.jpg	YN	Left	Yes	0.818882800056599	0	658993	252
1289.1640625	0.818882800056599	taste	choicePhaseStart	3	177	57	foodImage.14	FOODEEG_Images\0188.jpg	YN	Left	Yes	0.818882800056599	0	660053	253
1289.974609375	0	taste	response	3	177	57	foodImage.14	FOODEEG_Images\0188.jpg	YN	Left	Yes	0.818882800056599	0	660468	234
1291.0234375	1	taste	trialStart	3	178	58	foodImage.33	FOODEEG_Images\0329.jpg	YN	Left	Yes	0.701629200018942	0	661005	251
1292.068359375	2	taste	foodImageDisplay	3	178	58	foodImage.33	FOODEEG_Images\0329.jpg	YN	Left	Yes	0.701629200018942	0	661540	252
1294.130859375	0.701629200018942	taste	choicePhaseStart	3	178	58	foodImage.33	FOODEEG_Images\0329.jpg	YN	Left	Yes	0.701629200018942	0	662596	253
1294.822265625	0	taste	response	3	178	58	foodImage.33	FOODEEG_Images\0329.jpg	YN	Left	Yes	0.701629200018942	0	662950	234
1295.873046875	1	health	trialStart	3	179	59	foodImage.24	FOODEEG_Images\0250.jpg	NY	Right	Yes	0.889275199966505	0	663488	251
1296.916015625	2	health	foodImageDisplay	3	179	59	foodImage.24	FOODEEG_Images\0250.jpg	NY	Right	Yes	0.889275199966505	0	664022	252
1298.98046875	0.889275199966505	health	choicePhaseStart	3	179	59	foodImage.24	FOODEEG_Images\0250.jpg	NY	Right	Yes	0.889275199966505	0	665079	253
1299.86328125	0	health	response	3	179	59	foodImage.24	FOODEEG_Images\0250.jpg	NY	Right	Yes	0.889275199966505	0	665531	235
1300.912109375	1	decision	trialStart	3	180	60	foodImage.65	FOODEEG_Images\0658.jpg	NY	Right	Yes	0.590284500038251	0	666068	251
1301.955078125	2	decision	foodImageDisplay	3	180	60	foodImage.65	FOODEEG_Images\0658.jpg	NY	Right	Yes	0.590284500038251	0	666602	252
1304.017578125	0.590284500038251	decision	choicePhaseStart	3	180	60	foodImage.65	FOODEEG_Images\0658.jpg	NY	Right	Yes	0.590284500038251	0	667658	253
1304.599609375	0	decision	response	3	180	60	foodImage.65	FOODEEG_Images\0658.jpg	NY	Right	Yes	0.590284500038251	0	667956	235
1306.640625	28.990234375	n/a	blockEnd	n/a	n/a	n/a	n/a	n/a	n/a	n/a	n/a	n/a	n/a	669001	254
1335.630859375	2	n/a	blockStart	4	n/a	n/a	n/a	n/a	n/a	n/a	n/a	n/a	n/a	683844	250
1337.666015625	1	taste	trialStart	4	181	1	foodImage.57	FOODEEG_Images\0587.jpg	NY	Right	Yes	0.716446900041774	0	684886	251
1338.73046875	2	taste	foodImageDisplay	4	181	1	foodImage.57	FOODEEG_Images\0587.jpg	NY	Right	Yes	0.716446900041774	0	685431	252
1340.79296875	0.716446900041774	taste	choicePhaseStart	4	181	1	foodImage.57	FOODEEG_Images\0587.jpg	NY	Right	Yes	0.716446900041774	0	686487	253
1341.501953125	0	taste	response	4	181	1	foodImage.57	FOODEEG_Images\0587.jpg	NY	Right	Yes	0.716446900041774	0	686850	235
1342.544921875	1	health	trialStart	4	182	2	foodImage.118	FOODEEG_Images\0926.jpg	NY	Left	No	0.931387900025584	0	687384	251
1343.583984375	2	health	foodImageDisplay	4	182	2	foodImage.118	FOODEEG_Images\0926.jpg	NY	Left	No	0.931387900025584	0	687916	252
1345.650390625	0.931387900025584	health	choicePhaseStart	4	182	2	foodImage.118	FOODEEG_Images\0926.jpg	NY	Left	No	0.931387900025584	0	688974	253
1346.57421875	0	health	response	4	182	2	foodImage.118	FOODEEG_Images\0926.jpg	NY	Left	No	0.931387900025584	0	689447	234
1347.6171875	1	health	trialStart	4	183	3	foodImage.32	FOODEEG_Images\0319.jpg	YN	Left	Yes	2.10574210004415	0	689981	251
1348.66015625	2	health	foodImageDisplay	4	183	3	foodImage.32	FOODEEG_Images\0319.jpg	YN	Left	Yes	2.10574210004415	0	690515	252
1350.724609375	2.10574210004415	health	choicePhaseStart	4	183	3	foodImage.32	FOODEEG_Images\0319.jpg	YN	Left	Yes	2.10574210004415	0	691572	253
1352.822265625	0	health	response	4	183	3	foodImage.32	FOODEEG_Images\0319.jpg	YN	Left	Yes	2.10574210004415	0	692646	234
1353.87109375	1	taste	trialStart	4	184	4	foodImage.93	FOODEEG_Images\0901.jpg	YN	Right	No	0.56668070005253	0	693183	251
1354.92578125	2	taste	foodImageDisplay	4	184	4	foodImage.93	FOODEEG_Images\0901.jpg	YN	Right	No	0.56668070005253	0	693723	252
1356.990234375	0.56668070005253	taste	choicePhaseStart	4	184	4	foodImage.93	FOODEEG_Images\0901.jpg	YN	Right	No	0.56668070005253	0	694780	253
1357.548828125	0	taste	response	4	184	4	foodImage.93	FOODEEG_Images\0901.jpg	YN	Right	No	0.56668070005253	0	695066	235
1358.59375	1	taste	trialStart	4	185	5	foodImage.118	FOODEEG_Images\0926.jpg	YN	Right	No	0.510660199914128	0	695601	251
1359.6328125	2	taste	foodImageDisplay	4	185	5	foodImage.118	FOODEEG_Images\0926.jpg	YN	Right	No	0.510660199914128	0	696133	252
1361.6953125	0.510660199914128	taste	choicePhaseStart	4	185	5	foodImage.118	FOODEEG_Images\0926.jpg	YN	Right	No	0.510660199914128	0	697189	253
1362.197265625	0	taste	response	4	185	5	foodImage.118	FOODEEG_Images\0926.jpg	YN	Right	No	0.510660199914128	0	697446	235
1363.240234375	1	decision	trialStart	4	186	6	foodImage.104	FOODEEG_Images\0912.jpg	NY	Right	Yes	1.21692390006501	0	697980	251
1364.27734375	2	decision	foodImageDisplay	4	186	6	foodImage.104	FOODEEG_Images\0912.jpg	NY	Right	Yes	1.21692390006501	0	698511	252
1366.345703125	1.21692390006501	decision	choicePhaseStart	4	186	6	foodImage.104	FOODEEG_Images\0912.jpg	NY	Right	Yes	1.21692390006501	0	699570	253
1367.556640625	0	decision	response	4	186	6	foodImage.104	FOODEEG_Images\0912.jpg	NY	Right	Yes	1.21692390006501	0	700190	235
1368.59765625	1	taste	trialStart	4	187	7	foodImage.42	FOODEEG_Images\0438.jpg	NY	Left	No	0.80103119998239	0	700723	251
1369.685546875	2	taste	foodImageDisplay	4	187	7	foodImage.42	FOODEEG_Images\0438.jpg	NY	Left	No	0.80103119998239	0	701280	252
1371.748046875	0.80103119998239	taste	choicePhaseStart	4	187	7	foodImage.42	FOODEEG_Images\0438.jpg	NY	Left	No	0.80103119998239	0	702336	253
1372.541015625	0	taste	response	4	187	7	foodImage.42	FOODEEG_Images\0438.jpg	NY	Left	No	0.80103119998239	0	702742	234
1373.58984375	1	health	trialStart	4	188	8	foodImage.4	FOODEEG_Images\0065.jpg	NY	Right	Yes	1.18042619992048	0	703279	251
1374.650390625	2	health	foodImageDisplay	4	188	8	foodImage.4	FOODEEG_Images\0065.jpg	NY	Right	Yes	1.18042619992048	0	703822	252
1376.71875	1.18042619992048	health	choicePhaseStart	4	188	8	foodImage.4	FOODEEG_Images\0065.jpg	NY	Right	Yes	1.18042619992048	0	704881	253
1377.892578125	0	health	response	4	188	8	foodImage.4	FOODEEG_Images\0065.jpg	NY	Right	Yes	1.18042619992048	0	705482	235
1378.943359375	1	health	trialStart	4	189	9	foodImage.7	FOODEEG_Images\0116.jpg	YN	Right	No	1.10719899996184	0	706020	251
1379.984375	2	health	foodImageDisplay	4	189	9	foodImage.7	FOODEEG_Images\0116.jpg	YN	Right	No	1.10719899996184	0	706553	252
1382.0546875	1.10719899996184	health	choicePhaseStart	4	189	9	foodImage.7	FOODEEG_Images\0116.jpg	YN	Right	No	1.10719899996184	0	707613	253
1383.15625	0	health	response	4	189	9	foodImage.7	FOODEEG_Images\0116.jpg	YN	Right	No	1.10719899996184	0	708177	235
1384.201171875	1	decision	trialStart	4	190	10	foodImage.86	FOODEEG_Images\0844.jpg	NY	Right	Yes	0.736610500025563	0	708712	251
1385.259765625	2	decision	foodImageDisplay	4	190	10	foodImage.86	FOODEEG_Images\0844.jpg	NY	Right	Yes	0.736610500025563	0	709254	252
1387.32421875	0.736610500025563	decision	choicePhaseStart	4	190	10	foodImage.86	FOODEEG_Images\0844.jpg	NY	Right	Yes	0.736610500025563	0	710311	253
1388.052734375	0	decision	response	4	190	10	foodImage.86	FOODEEG_Images\0844.jpg	NY	Right	Yes	0.736610500025563	0	710684	235
1389.11328125	1	decision	trialStart	4	191	11	foodImage.12	FOODEEG_Images\0181.jpg	YN	Left	Yes	0.577358799986541	0	711227	251
1390.154296875	2	decision	foodImageDisplay	4	191	11	foodImage.12	FOODEEG_Images\0181.jpg	YN	Left	Yes	0.577358799986541	0	711760	252
1392.220703125	0.577358799986541	decision	choicePhaseStart	4	191	11	foodImage.12	FOODEEG_Images\0181.jpg	YN	Left	Yes	0.577358799986541	0	712818	253
1392.787109375	0	decision	response	4	191	11	foodImage.12	FOODEEG_Images\0181.jpg	YN	Left	Yes	0.577358799986541	0	713108	234
1393.83203125	1	taste	trialStart	4	192	12	foodImage.15	FOODEEG_Images\0189.jpg	YN	Left	Yes	1.09144689992536	0	713643	251
1394.890625	2	taste	foodImageDisplay	4	192	12	foodImage.15	FOODEEG_Images\0189.jpg	YN	Left	Yes	1.09144689992536	0	714185	252
