onset	duration	trial_type	event_type	block	trial_total	trial_in_block	food_image_code	food_image_path	button_position	resp_position	resp_choice	choice_rt	resp_too_slow	sample	trigger
317.583984375	2	n/a	blockStart	1	n/a	n/a	n/a	n/a	n/a	n/a	n/a	n/a	n/a	162604	250
319.62109375	1	health	trialStart	1	1	1	foodImage.60	FOODEEG_Images\0614.jpg	YN	Left	Yes	0.725041900000178	0	163647	251
320.689453125	2	health	foodImageDisplay	1	1	1	foodImage.60	FOODEEG_Images\0614.jpg	YN	Left	Yes	0.725041900000178	0	164194	252
322.75390625	0.725041900000178	health	choicePhaseStart	1	1	1	foodImage.60	FOODEEG_Images\0614.jpg	YN	Left	Yes	0.725041900000178	0	165251	253
323.47265625	0	health	response	1	1	1	foodImage.60	FOODEEG_Images\0614.jpg	YN	Left	Yes	0.725041900000178	0	165619	234
324.576171875	1	decision	trialStart	1	2	2	foodImage.70	FOODEEG_Images\0705.jpg	NY	Right	Yes	1.33060720000003	0	166184	251
325.638671875	2	decision	foodImageDisplay	1	2	2	foodImage.70	FOODEEG_Images\0705.jpg	NY	Right	Yes	1.33060720000003	0	166728	252
327.701171875	1.33060720000003	decision	choicePhaseStart	1	2	2	foodImage.70	FOODEEG_Images\0705.jpg	NY	Right	Yes	1.33060720000003	0	167784	253
329.0234375	0	decision	response	1	2	2	foodImage.70	FOODEEG_Images\0705.jpg	NY	Right	Yes	1.33060720000003	0	168461	235
330.078125	1	taste	trialStart	1	3	3	foodImage.98	FOODEEG_Images\0906.jpg	NY	Left	No	1.02175259999967	0	169001	251
331.119140625	2	taste	foodImageDisplay	1	3	3	foodImage.98	FOODEEG_Images\0906.jpg	NY	Left	No	1.02175259999967	0	169534	252
333.19140625	1.02175259999967	taste	choicePhaseStart	1	3	3	foodImage.98	FOODEEG_Images\0906.jpg	NY	Left	No	1.02175259999967	0	170595	253
334.20703125	0	taste	response	1	3	3	foodImage.98	FOODEEG_Images\0906.jpg	NY	Left	No	1.02175259999967	0	171115	234
335.251953125	1	health	trialStart	1	4	4	foodImage.49	FOODEEG_Images\0515.jpg	YN	Left	Yes	1.01856529999986	0	171650	251
336.296875	2	health	foodImageDisplay	1	4	4	foodImage.49	FOODEEG_Images\0515.jpg	YN	Left	Yes	1.01856529999986	0	172185	252
338.365234375	1.01856529999986	health	choicePhaseStart	1	4	4	foodImage.49	FOODEEG_Images\0515.jpg	YN	Left	Yes	1.01856529999986	0	173244	253
339.375	0	health	response	1	4	4	foodImage.49	FOODEEG_Images\0515.jpg	YN	Left	Yes	1.01856529999986	0	173761	234
340.419921875	1	taste	trialStart	1	5	5	foodImage.54	FOODEEG_Images\0560.jpg	NY	Right	Yes	1.21313000000009	0	174296	251
341.482421875	2	taste	foodImageDisplay	1	5	5	foodImage.54	FOODEEG_Images\0560.jpg	NY	Right	Yes	1.21313000000009	0	174840	252
343.546875	1.21313000000009	taste	choicePhaseStart	1	5	5	foodImage.54	FOODEEG_Images\0560.jpg	NY	Right	Yes	1.21313000000009	0	175897	253
344.751953125	0	taste	response	1	5	5	foodImage.54	FOODEEG_Images\0560.jpg	NY	Right	Yes	1.21313000000009	0	176514	235
345.802734375	1	decision	trialStart	1	6	6	foodImage.114	FOODEEG_Images\0922.jpg	YN	Left	Yes	0.786565300000348	0	177052	251
346.84375	2	decision	foodImageDisplay	1	6	6	foodImage.114	FOODEEG_Images\0922.jpg	YN	Left	Yes	0.786565300000348	0	177585	252
348.908203125	0.786565300000348	decision	choicePhaseStart	1	6	6	foodImage.114	FOODEEG_Images\0922.jpg	YN	Left	Yes	0.786565300000348	0	178642	253
349.6875	0	decision	response	1	6	6	foodImage.114	FOODEEG_Images\0922.jpg	YN	Left	Yes	0.786565300000348	0	179041	234
350.73046875	1	decision	trialStart	1	7	7	foodImage.15	FOODEEG_Images\0189.jpg	YN	Left	Yes	0.815852399999585	0	179575	251
351.791015625	2	decision	foodImageDisplay	1	7	7	foodImage.15	FOODEEG_Images\0189.jpg	YN	Left	Yes	0.815852399999585	0	180118	252
353.85546875	0.815852399999585	decision	choicePhaseStart	1	7	7	foodImage.15	FOODEEG_Images\0189.jpg	YN	Left	Yes	0.815852399999585	0	181175	253
354.6640625	0	decision	response	1	7	7	foodImage.15	FOODEEG_Images\0189.jpg	YN	Left	Yes	0.815852399999585	0	181589	234
355.70703125	1	decision	trialStart	1	8	8	foodImage.55	FOODEEG_Images\0567.jpg	YN	Left	Yes	0.753555700000106	0	182123	251
356.763671875	2	decision	foodImageDisplay	1	8	8	foodImage.55	FOODEEG_Images\0567.jpg	YN	Left	Yes	0.753555700000106	0	182664	252
358.828125	0.753555700000106	decision	choicePhaseStart	1	8	8	foodImage.55	FOODEEG_Images\0567.jpg	YN	Left	Yes	0.753555700000106	0	183721	253
359.57421875	0	decision	response	1	8	8	foodImage.55	FOODEEG_Images\0567.jpg	YN	Left	Yes	0.753555700000106	0	184103	234
360.6171875	1	decision	trialStart	1	9	9	foodImage.31	FOODEEG_Images\0294.jpg	NY	Right	Yes	0.928289400000267	0	184637	251
361.662109375	2	decision	foodImageDisplay	1	9	9	foodImage.31	FOODEEG_Images\0294.jpg	NY	Right	Yes	0.928289400000267	0	185172	252
363.7265625	0.928289400000267	decision	choicePhaseStart	1	9	9	foodImage.31	FOODEEG_Images\0294.jpg	NY	Right	Yes	0.928289400000267	0	186229	253
364.646484375	0	decision	response	1	9	9	foodImage.31	FOODEEG_Images\0294.jpg	NY	Right	Yes	0.928289400000267	0	186700	235
365.689453125	1	decision	trialStart	1	10	10	foodImage.21	FOODEEG_Images\0234.jpg	NY	Right	Yes	0.931679199999962	0	187234	251
366.74609375	2	decision	foodImageDisplay	1	10	10	foodImage.21	FOODEEG_Images\0234.jpg	NY	Right	Yes	0.931679199999962	0	187775	252
368.810546875	0.931679199999962	decision	choicePhaseStart	1	10	10	foodImage.21	FOODEEG_Images\0234.jpg	NY	Right	Yes	0.931679199999962	0	188832	253
369.734375	0	decision	response	1	10	10	foodImage.21	FOODEEG_Images\0234.jpg	NY	Right	Yes	0.931679199999962	0	189305	235
370.77734375	1	decision	trialStart	1	11	11	foodImage.118	FOODEEG_Images\0926.jpg	YN	Right	No	0.884866400000192	0	189839	251
371.818359375	2	decision	foodImageDisplay	1	11	11	foodImage.118	FOODEEG_Images\0926.jpg	YN	Right	No	0.884866400000192	0	190372	252
373.8828125	0.884866400000192	decision	choicePhaseStart	1	11	11	foodImage.118	FOODEEG_Images\0926.jpg	YN	Right	No	0.884866400000192	0	191429	253
374.7578125	0	decision	response	1	11	11	foodImage.118	FOODEEG_Images\0926.jpg	YN	Right	No	0.884866400000192	0	191877	235
375.80078125	1	decision	trialStart	1	12	12	foodImage.92	FOODEEG_Images\0900.jpg	NY	Left	No	1.11669539999957	0	192411	251
376.84375	2	decision	foodImageDisplay	1	12	12	foodImage.92	FOODEEG_Images\0900.jpg	NY	Left	No	1.11669539999957	0	192945	252
378.90625	1.11669539999957	decision	choicePhaseStart	1	12	12	foodImage.92	FOODEEG_Images\0900.jpg	NY	Left	No	1.11669539999957	0	194001	253
380.013671875	0	decision	response	1	12	12	foodImage.92	FOODEEG_Images\0900.jpg	NY	Left	No	1.11669539999957	0	194568	234
381.06640625	1	taste	trialStart	1	13	13	foodImage.66	FOODEEG_Images\0676.jpg	NY	Right	Yes	0.744264599999951	0	195107	251
382.109375	2	taste	foodImageDisplay	1	13	13	foodImage.66	FOODEEG_Images\0676.jpg	NY	Right	Yes	0.744264599999951	0	195641	252
384.173828125	0.744264599999951	taste	choicePhaseStart	1	13	13	foodImage.66	FOODEEG_Images\0676.jpg	NY	Right	Yes	0.744264599999951	0	196698	253
384.91015625	0	taste	response	1	13	13	foodImage.66	FOODEEG_Images\0676.jpg	NY	Right	Yes	0.744264599999951	0	197075	235
385.951171875	1	taste	trialStart	1	14	14	foodImage.53	FOODEEG_Images\0547.jpg	YN	Left	Yes	0.821844900000087	0	197608	251
387.021484375	2	taste	foodImageDisplay	1	14	14	foodImage.53	FOODEEG_Images\0547.jpg	YN	Left	Yes	0.821844900000087	0	198156	252
389.0859375	0.821844900000087	taste	choicePhaseStart	1	14	14	foodImage.53	FOODEEG_Images\0547.jpg	YN	Left	Yes	0.821844900000087	0	199213	253
389.90234375	0	taste	response	1	14	14	foodImage.53	FOODEEG_Images\0547.jpg	YN	Left	Yes	0.821844900000087	0	199631	234
390.9453125	1	decision	trialStart	1	15	15	foodImage.38	FOODEEG_Images\0365.jpg	NY	Right	Yes	0.698452999999972	0	200165	251
391.984375	2	decision	foodImageDisplay	1	15	15	foodImage.38	FOODEEG_Images\0365.jpg	NY	Right	Yes	0.698452999999972	0	200697	252
394.052734375	0.698452999999972	decision	choicePhaseStart	1	15	15	foodImage.38	FOODEEG_Images\0365.jpg	NY	Right	Yes	0.698452999999972	0	201756	253
394.740234375	0	decision	response	1	15	15	foodImage.38	FOODEEG_Images\0365.jpg	NY	Right	Yes	0.698452999999972	0	202108	235
395.78515625	1	health	trialStart	1	16	16	foodImage.82	FOODEEG_Images\0805.jpg	NY	Right	Yes	1.07864719999998	0	202643	251
396.84375	2	health	foodImageDisplay	1	16	16	foodImage.82	FOODEEG_Images\0805.jpg	NY	Right	Yes	1.07864719999998	0	203185	252
398.908203125	1.07864719999998	health	choicePhaseStart	1	16	16	foodImage.82	FOODEEG_Images\0805.jpg	NY	Right	Yes	1.07864719999998	0	204242	253
399.98046875	0	health	response	1	16	16	foodImage.82	FOODEEG_Images\0805.jpg	NY	Right	Yes	1.07864719999998	0	204791	235
401.0234375	1	health	trialStart	1	17	17	foodImage.103	FOODEEG_Images\0911.jpg	NY	Left	No	1.31323259999999	0	205325	251
402.0625	2	health	foodImageDisplay	1	17	17	foodImage.103	FOODEEG_Images\0911.jpg	NY	Left	No	1.31323259999999	0	205857	252
404.125	1.31323259999999	health	choicePhaseStart	1	17	17	foodImage.103	FOODEEG_Images\0911.jpg	NY	Left	No	1.31323259999999	0	206913	253
405.4296875	0	health	response	1	17	17	foodImage.103	FOODEEG_Images\0911.jpg	NY	Left	No	1.31323259999999	0	207581	234
406.470703125	1	health	trialStart	1	18	18	foodImage.111	FOODEEG_Images\0919.jpg	YN	Right	No	0.888718400000016	0	208114	251
407.5078125	2	health	foodImageDisplay	1	18	18	foodImage.111	FOODEEG_Images\0919.jpg	YN	Right	No	0.888718400000016	0	208645	252
409.572265625	0.888718400000016	health	choicePhaseStart	1	18	18	foodImage.111	FOODEEG_Images\0919.jpg	YN	Right	No	0.888718400000016	0	209702	253
410.453125	0	health	response	1	18	18	foodImage.111	FOODEEG_Images\0919.jpg	YN	Right	No	0.888718400000016	0	210153	235
411.49609375	1	taste	trialStart	1	19	19	foodImage.77	FOODEEG_Images\0771.jpg	YN	Left	Yes	1.35097089999999	0	210687	251
412.54296875	2	taste	foodImageDisplay	1	19	19	foodImage.77	FOODEEG_Images\0771.jpg	YN	Left	Yes	1.35097089999999	0	211223	252
414.60546875	1.35097089999999	taste	choicePhaseStart	1	19	19	foodImage.77	FOODEEG_Images\0771.jpg	YN	Left	Yes	1.35097089999999	0	212279	253
415.947265625	0	taste	response	1	19	19	foodImage.77	FOODEEG_Images\0771.jpg	YN	Left	Yes	1.35097089999999	0	212966	234
416.986328125	1	decision	trialStart	1	20	20	foodImage.58	FOODEEG_Images\0605.jpg	NY	Right	Yes	0.731231899999784	0	213498	251
418.04296875	2	decision	foodImageDisplay	1	20	20	foodImage.58	FOODEEG_Images\0605.jpg	NY	Right	Yes	0.731231899999784	0	214039	252
420.10546875	0.731231899999784	decision	choicePhaseStart	1	20	20	foodImage.58	FOODEEG_Images\0605.jpg	NY	Right	Yes	0.731231899999784	0	215095	253
420.828125	0	decision	response	1	20	20	foodImage.58	FOODEEG_Images\0605.jpg	NY	Right	Yes	0.731231899999784	0	215465	235
421.87109375	1	decision	trialStart	1	21	21	foodImage.101	FOODEEG_Images\0909.jpg	YN	Right	No	0.688586199999918	0	215999	251
422.912109375	2	decision	foodImageDisplay	1	21	21	foodImage.101	FOODEEG_Images\0909.jpg	YN	Right	No	0.688586199999918	0	216532	252
424.978515625	0.688586199999918	decision	choicePhaseStart	1	21	21	foodImage.101	FOODEEG_Images\0909.jpg	YN	Right	No	0.688586199999918	0	217590	253
425.66015625	0	decision	response	1	21	21	foodImage.101	FOODEEG_Images\0909.jpg	YN	Right	No	0.688586199999918	0	217939	235
426.69921875	1	health	trialStart	1	22	22	foodImage.86	FOODEEG_Images\0844.jpg	NY	Left	No	1.41224060000013	0	218471	251
427.7578125	2	health	foodImageDisplay	1	22	22	foodImage.86	FOODEEG_Images\0844.jpg	NY	Left	No	1.41224060000013	0	219013	252
429.822265625	1.41224060000013	health	choicePhaseStart	1	22	22	foodImage.86	FOODEEG_Images\0844.jpg	NY	Left	No	1.41224060000013	0	220070	253
431.228515625	0	health	response	1	22	22	foodImage.86	FOODEEG_Images\0844.jpg	NY	Left	No	1.41224060000013	0	220790	234
432.26953125	1	decision	trialStart	1	23	23	foodImage.69	FOODEEG_Images\0693.jpg	NY	Right	Yes	1.05043579999983	0	221323	251
433.314453125	2	decision	foodImageDisplay	1	23	23	foodImage.69	FOODEEG_Images\0693.jpg	NY	Right	Yes	1.05043579999983	0	221858	252
435.37890625	1.05043579999983	decision	choicePhaseStart	1	23	23	foodImage.69	FOODEEG_Images\0693.jpg	NY	Right	Yes	1.05043579999983	0	222915	253
436.419921875	0	decision	response	1	23	23	foodImage.69	FOODEEG_Images\0693.jpg	NY	Right	Yes	1.05043579999983	0	223448	235
437.466796875	1	taste	trialStart	1	24	24	foodImage.74	FOODEEG_Images\0752.jpg	NY	Right	Yes	1.48161699999991	0	223984	251
438.513671875	2	taste	foodImageDisplay	1	24	24	foodImage.74	FOODEEG_Images\0752.jpg	NY	Right	Yes	1.48161699999991	0	224520	252
440.576171875	1.48161699999991	taste	choicePhaseStart	1	24	24	foodImage.74	FOODEEG_Images\0752.jpg	NY	Right	Yes	1.48161699999991	0	225576	253
442.05078125	0	taste	response	1	24	24	foodImage.74	FOODEEG_Images\0752.jpg	NY	Right	Yes	1.48161699999991	0	226331	235
443.09375	1	decision	trialStart	1	25	25	foodImage.94	FOODEEG_Images\0902.jpg	YN	Left	Yes	0.795347700000093	0	226865	251
444.134765625	2	decision	foodImageDisplay	1	25	25	foodImage.94	FOODEEG_Images\0902.jpg	YN	Left	Yes	0.795347700000093	0	227398	252
446.197265625	0.795347700000093	decision	choicePhaseStart	1	25	25	foodImage.94	FOODEEG_Images\0902.jpg	YN	Left	Yes	0.795347700000093	0	228454	253
446.986328125	0	decision	response	1	25	25	foodImage.94	FOODEEG_Images\0902.jpg	YN	Left	Yes	0.795347700000093	0	228858	234
448.029296875	1	health	trialStart	1	26	26	foodImage.66	FOODEEG_Images\0676.jpg	YN	Left	Yes	1.01387950000026	0	229392	251
449.0703125	2	health	foodImageDisplay	1	26	26	foodImage.66	FOODEEG_Images\0676.jpg	YN	Left	Yes	1.01387950000026	0	229925	252
451.134765625	1.01387950000026	health	choicePhaseStart	1	26	26	foodImage.66	FOODEEG_Images\0676.jpg	YN	Left	Yes	1.01387950000026	0	230982	253
452.138671875	0	health	response	1	26	26	foodImage.66	FOODEEG_Images\0676.jpg	YN	Left	Yes	1.01387950000026	0	231496	234
453.181640625	1	health	trialStart	1	27	27	foodImage.106	FOODEEG_Images\0914.jpg	YN	Right	No	1.87495860000035	0	232030	251
454.22265625	2	health	foodImageDisplay	1	27	27	foodImage.106	FOODEEG_Images\0914.jpg	YN	Right	No	1.87495860000035	0	232563	252
456.287109375	1.87495860000035	health	choicePhaseStart	1	27	27	foodImage.106	FOODEEG_Images\0914.jpg	YN	Right	No	1.87495860000035	0	233620	253
458.154296875	0	health	response	1	27	27	foodImage.106	FOODEEG_Images\0914.jpg	YN	Right	No	1.87495860000035	0	234576	235
459.19921875	1	taste	trialStart	1	28	28	foodImage.26	FOODEEG_Images\0262.jpg	YN	Right	No	1.77676920000022	0	235111	251
460.244140625	2	taste	foodImageDisplay	1	28	28	foodImage.26	FOODEEG_Images\0262.jpg	YN	Right	No	1.77676920000022	0	235646	252
462.306640625	1.77676920000022	taste	choicePhaseStart	1	28	28	foodImage.26	FOODEEG_Images\0262.jpg	YN	Right	No	1.77676920000022	0	236702	253
464.07421875	0	taste	response	1	28	28	foodImage.26	FOODEEG_Images\0262.jpg	YN	Right	No	1.77676920000022	0	237607	235
465.1171875	1	decision	trialStart	1	29	29	foodImage.110	FOODEEG_Images\0918.jpg	YN	Right	No	0.966597999999976	0	238141	251
466.15625	2	decision	foodImageDisplay	1	29	29	foodImage.110	FOODEEG_Images\0918.jpg	YN	Right	No	0.966597999999976	0	238673	252
468.220703125	0.966597999999976	decision	choicePhaseStart	1	29	29	foodImage.110	FOODEEG_Images\0918.jpg	YN	Right	No	0.966597999999976	0	239730	253
469.177734375	0	decision	response	1	29	29	foodImage.110	FOODEEG_Images\0918.jpg	YN	Right	No	0.966597999999976	0	240220	235
470.220703125	1	decision	trialStart	1	30	30	foodImage.25	FOODEEG_Images\0261.jpg	YN	Left	Yes	0.912253699999837	0	240754	251
471.263671875	2	decision	foodImageDisplay	1	30	30	foodImage.25	FOODEEG_Images\0261.jpg	YN	Left	Yes	0.912253699999837	0	241288	252
473.328125	0.912253699999837	decision	choicePhaseStart	1	30	30	foodImage.25	FOODEEG_Images\0261.jpg	YN	Left	Yes	0.912253699999837	0	242345	253
474.234375	0	decision	response	1	30	30	foodImage.25	FOODEEG_Images\0261.jpg	YN	Left	Yes	0.912253699999837	0	242809	234
475.27734375	1	decision	trialStart	1	31	31	foodImage.95	FOODEEG_Images\0903.jpg	NY	Left	No	0.885903899999903	0	243343	251
476.31640625	2	decision	foodImageDisplay	1	31	31	foodImage.95	FOODEEG_Images\0903.jpg	NY	Left	No	0.885903899999903	0	243875	252
478.380859375	0.885903899999903	decision	choicePhaseStart	1	31	31	foodImage.95	FOODEEG_Images\0903.jpg	NY	Left	No	0.885903899999903	0	244932	253
479.2578125	0	decision	response	1	31	31	foodImage.95	FOODEEG_Images\0903.jpg	NY	Left	No	0.885903899999903	0	245381	234
480.302734375	1	taste	trialStart	1	32	32	foodImage.27	FOODEEG_Images\0263.jpg	YN	Left	Yes	1.63342439999997	0	245916	251
481.345703125	2	taste	foodImageDisplay	1	32	32	foodImage.27	FOODEEG_Images\0263.jpg	YN	Left	Yes	1.63342439999997	0	246450	252
483.41015625	1.63342439999997	taste	choicePhaseStart	1	32	32	foodImage.27	FOODEEG_Images\0263.jpg	YN	Left	Yes	1.63342439999997	0	247507	253
485.033203125	0	taste	response	1	32	32	foodImage.27	FOODEEG_Images\0263.jpg	YN	Left	Yes	1.63342439999997	0	248338	234
486.072265625	1	health	trialStart	1	33	33	foodImage.77	FOODEEG_Images\0771.jpg	NY	Right	Yes	1.06314070000008	0	248870	251
487.1171875	2	health	foodImageDisplay	1	33	33	foodImage.77	FOODEEG_Images\0771.jpg	NY	Right	Yes	1.06314070000008	0	249405	252
489.1796875	1.06314070000008	health	choicePhaseStart	1	33	33	foodImage.77	FOODEEG_Images\0771.jpg	NY	Right	Yes	1.06314070000008	0	250461	253
490.234375	0	health	response	1	33	33	foodImage.77	FOODEEG_Images\0771.jpg	NY	Right	Yes	1.06314070000008	0	251001	235
491.275390625	1	decision	trialStart	1	34	34	foodImage.90	FOODEEG_Images\0890.jpg	NY	Right	Yes	1.66064189999997	0	251534	251
492.357421875	2	decision	foodImageDisplay	1	34	34	foodImage.90	FOODEEG_Images\0890.jpg	NY	Right	Yes	1.66064189999997	0	252088	252
494.421875	1.66064189999997	decision	choicePhaseStart	1	34	34	foodImage.90	FOODEEG_Images\0890.jpg	NY	Right	Yes	1.66064189999997	0	253145	253
496.072265625	0	decision	response	1	34	34	foodImage.90	FOODEEG_Images\0890.jpg	NY	Right	Yes	1.66064189999997	0	253990	235
497.115234375	1	health	trialStart	1	35	35	foodImage.104	FOODEEG_Images\0912.jpg	NY	Left	No	0.594014399999651	0	254524	251
498.154296875	2	health	foodImageDisplay	1	35	35	foodImage.104	FOODEEG_Images\0912.jpg	NY	Left	No	0.594014399999651	0	255056	252
500.216796875	0.594014399999651	health	choicePhaseStart	1	35	35	foodImage.104	FOODEEG_Images\0912.jpg	NY	Left	No	0.594014399999651	0	256112	253
500.80078125	0	health	response	1	35	35	foodImage.104	FOODEEG_Images\0912.jpg	NY	Left	No	0.594014399999651	0	256411	234
501.84375	1	taste	trialStart	1	36	36	foodImage.41	FOODEEG_Images\0409.jpg	YN	Left	Yes	0.837754900000164	0	256945	251
502.892578125	2	taste	foodImageDisplay	1	36	36	foodImage.41	FOODEEG_Images\0409.jpg	YN	Left	Yes	0.837754900000164	0	257482	252
504.95703125	0.837754900000164	taste	choicePhaseStart	1	36	36	foodImage.41	FOODEEG_Images\0409.jpg	YN	Left	Yes	0.837754900000164	0	258539	253
505.78515625	0	taste	response	1	36	36	foodImage.41	FOODEEG_Images\0409.jpg	YN	Left	Yes	0.837754900000164	0	258963	234
506.828125	1	health	trialStart	1	37	37	foodImage.28	FOODEEG_Images\0273.jpg	YN	Left	Yes	0.791105100000095	0	259497	251
507.884765625	2	health	foodImageDisplay	1	37	37	foodImage.28	FOODEEG_Images\0273.jpg	YN	Left	Yes	0.791105100000095	0	260038	252
509.951171875	0.791105100000095	health	choicePhaseStart	1	37	37	foodImage.28	FOODEEG_Images\0273.jpg	YN	Left	Yes	0.791105100000095	0	261096	253
510.736328125	0	health	response	1	37	37	foodImage.28	FOODEEG_Images\0273.jpg	YN	Left	Yes	0.791105100000095	0	261498	234
511.779296875	1	taste	trialStart	1	38	38	foodImage.52	FOODEEG_Images\0539.jpg	NY	Right	Yes	1.07410439999967	0	262032	251
512.83984375	2	taste	foodImageDisplay	1	38	38	foodImage.52	FOODEEG_Images\0539.jpg	NY	Right	Yes	1.07410439999967	0	262575	252
514.90234375	1.07410439999967	taste	choicePhaseStart	1	38	38	foodImage.52	FOODEEG_Images\0539.jpg	NY	Right	Yes	1.07410439999967	0	263631	253
515.96875	0	taste	response	1	38	38	foodImage.52	FOODEEG_Images\0539.jpg	NY	Right	Yes	1.07410439999967	0	264177	235
517.03515625	1	taste	trialStart	1	39	39	foodImage.71	FOODEEG_Images\0713.jpg	NY	Right	Yes	0.757510599999932	0	264723	251
518.076171875	2	taste	foodImageDisplay	1	39	39	foodImage.71	FOODEEG_Images\0713.jpg	NY	Right	Yes	0.757510599999932	0	265256	252
520.140625	0.757510599999932	taste	choicePhaseStart	1	39	39	foodImage.71	FOODEEG_Images\0713.jpg	NY	Right	Yes	0.757510599999932	0	266313	253
520.888671875	0	taste	response	1	39	39	foodImage.71	FOODEEG_Images\0713.jpg	NY	Right	Yes	0.757510599999932	0	266696	235
521.931640625	1	health	trialStart	1	40	40	foodImage.119	FOODEEG_Images\0927.jpg	NY	Left	No	0.896500700000161	0	267230	251
522.970703125	2	health	foodImageDisplay	1	40	40	foodImage.119	FOODEEG_Images\0927.jpg	NY	Left	No	0.896500700000161	0	267762	252
525.037109375	0.896500700000161	health	choicePhaseStart	1	40	40	foodImage.119	FOODEEG_Images\0927.jpg	NY	Left	No	0.896500700000161	0	268820	253
525.927734375	0	health	response	1	40	40	foodImage.119	FOODEEG_Images\0927.jpg	NY	Left	No	0.896500700000161	0	269276	234
526.970703125	1	health	trialStart	1	41	41	foodImage.72	FOODEEG_Images\0714.jpg	NY	Left	No	0.825978099999702	0	269810	251
528.013671875	2	health	foodImageDisplay	1	41	41	foodImage.72	FOODEEG_Images\0714.jpg	NY	Left	No	0.825978099999702	0	270344	252
530.078125	0.825978099999702	health	choicePhaseStart	1	41	41	foodImage.72	FOODEEG_Images\0714.jpg	NY	Left	No	0.825978099999702	0	271401	253
530.896484375	0	health	response	1	41	41	foodImage.72	FOODEEG_Images\0714.jpg	NY	Left	No	0.825978099999702	0	271820	234
531.9375	1	decision	trialStart	1	42	42	foodImage.67	FOODEEG_Images\0679.jpg	YN	Right	No	2.05295890000025	0	272353	251
532.994140625	2	decision	foodImageDisplay	1	42	42	foodImage.67	FOODEEG_Images\0679.jpg	YN	Right	No	2.05295890000025	0	272894	252
535.05859375	2.05295890000025	decision	choicePhaseStart	1	42	42	foodImage.67	FOODEEG_Images\0679.jpg	YN	Right	No	2.05295890000025	0	273951	253
537.103515625	0	decision	response	1	42	42	foodImage.67	FOODEEG_Images\0679.jpg	YN	Right	No	2.05295890000025	0	274998	235
538.1484375	1	decision	trialStart	1	43	43	foodImage.106	FOODEEG_Images\0914.jpg	YN	Right	No	1.51687799999945	0	275533	251
539.1875	2	decision	foodImageDisplay	1	43	43	foodImage.106	FOODEEG_Images\0914.jpg	YN	Right	No	1.51687799999945	0	276065	252
541.251953125	1.51687799999945	decision	choicePhaseStart	1	43	43	foodImage.106	FOODEEG_Images\0914.jpg	YN	Right	No	1.51687799999945	0	277122	253
542.759765625	0	decision	response	1	43	43	foodImage.106	FOODEEG_Images\0914.jpg	YN	Right	No	1.51687799999945	0	277894	235
543.80078125	1	health	trialStart	1	44	44	foodImage.13	FOODEEG_Images\0183.jpg	NY	Right	Yes	0.820713099999921	0	278427	251
544.845703125	2	health	foodImageDisplay	1	44	44	foodImage.13	FOODEEG_Images\0183.jpg	NY	Right	Yes	0.820713099999921	0	278962	252
546.908203125	0.820713099999921	health	choicePhaseStart	1	44	44	foodImage.13	FOODEEG_Images\0183.jpg	NY	Right	Yes	0.820713099999921	0	280018	253
547.71875	0	health	response	1	44	44	foodImage.13	FOODEEG_Images\0183.jpg	NY	Right	Yes	0.820713099999921	0	280433	235
548.76171875	1	decision	trialStart	1	45	45	foodImage.45	FOODEEG_Images\0478.jpg	NY	Right	Yes	0.839398600000095	0	280967	251
549.80859375	2	decision	foodImageDisplay	1	45	45	foodImage.45	FOODEEG_Images\0478.jpg	NY	Right	Yes	0.839398600000095	0	281503	252
551.873046875	0.839398600000095	decision	choicePhaseStart	1	45	45	foodImage.45	FOODEEG_Images\0478.jpg	NY	Right	Yes	0.839398600000095	0	282560	253
552.703125	0	decision	response	1	45	45	foodImage.45	FOODEEG_Images\0478.jpg	NY	Right	Yes	0.839398600000095	0	282985	235
553.744140625	1	taste	trialStart	1	46	46	foodImage.24	FOODEEG_Images\0250.jpg	YN	Left	Yes	1.15329789999942	0	283518	251
554.7890625	2	taste	foodImageDisplay	1	46	46	foodImage.24	FOODEEG_Images\0250.jpg	YN	Left	Yes	1.15329789999942	0	284053	252
556.853515625	1.15329789999942	taste	choicePhaseStart	1	46	46	foodImage.24	FOODEEG_Images\0250.jpg	YN	Left	Yes	1.15329789999942	0	285110	253
557.998046875	0	taste	response	1	46	46	foodImage.24	FOODEEG_Images\0250.jpg	YN	Left	Yes	1.15329789999942	0	285696	234
559.041015625	1	health	trialStart	1	47	47	foodImage.6	FOODEEG_Images\0113.jpg	YN	Right	No	0.611846300000252	0	286230	251
560.083984375	2	health	foodImageDisplay	1	47	47	foodImage.6	FOODEEG_Images\0113.jpg	YN	Right	No	0.611846300000252	0	286764	252
562.1484375	0.611846300000252	health	choicePhaseStart	1	47	47	foodImage.6	FOODEEG_Images\0113.jpg	YN	Right	No	0.611846300000252	0	287821	253
562.75	0	health	response	1	47	47	foodImage.6	FOODEEG_Images\0113.jpg	YN	Right	No	0.611846300000252	0	288129	235
563.79296875	1	taste	trialStart	1	48	48	foodImage.72	FOODEEG_Images\0714.jpg	NY	Left	No	0.972033799999735	0	288663	251
564.8359375	2	taste	foodImageDisplay	1	48	48	foodImage.72	FOODEEG_Images\0714.jpg	NY	Left	No	0.972033799999735	0	289197	252
566.8984375	0.972033799999735	taste	choicePhaseStart	1	48	48	foodImage.72	FOODEEG_Images\0714.jpg	NY	Left	No	0.972033799999735	0	290253	253
567.861328125	0	taste	response	1	48	48	foodImage.72	FOODEEG_Images\0714.jpg	NY	Left	No	0.972033799999735	0	290746	234
568.904296875	1	taste	trialStart	1	49	49	foodImage.31	FOODEEG_Images\0294.jpg	NY	Right	Yes	0.677420600000005	0	291280	251
569.9453125	2	taste	foodImageDisplay	1	49	49	foodImage.31	FOODEEG_Images\0294.jpg	NY	Right	Yes	0.677420600000005	0	291813	252
572.009765625	0.677420600000005	taste	choicePhaseStart	1	49	49	foodImage.31	FOODEEG_Images\0294.jpg	NY	Right	Yes	0.677420600000005	0	292870	253
572.677734375	0	taste	response	1	49	49	foodImage.31	FOODEEG_Images\0294.jpg	NY	Right	Yes	0.677420600000005	0	293212	235
573.71875	1	decision	trialStart	1	50	50	foodImage.44	FOODEEG_Images\0459.jpg	NY	Right	Yes	0.556231600000501	0	293745	251
574.765625	2	decision	foodImageDisplay	1	50	50	foodImage.44	FOODEEG_Images\0459.jpg	NY	Right	Yes	0.556231600000501	0	294281	252
576.8359375	0.556231600000501	decision	choicePhaseStart	1	50	50	foodImage.44	FOODEEG_Images\0459.jpg	NY	Right	Yes	0.556231600000501	0	295341	253
577.3828125	0	decision	response	1	50	50	foodImage.44	FOODEEG_Images\0459.jpg	NY	Right	Yes	0.556231600000501	0	295621	235
578.42578125	1	taste	trialStart	1	51	51	foodImage.46	FOODEEG_Images\0479.jpg	NY	Right	Yes	0.731343799999195	0	296155	251
579.484375	2	taste	foodImageDisplay	1	51	51	foodImage.46	FOODEEG_Images\0479.jpg	NY	Right	Yes	0.731343799999195	0	296697	252
581.546875	0.731343799999195	taste	choicePhaseStart	1	51	51	foodImage.46	FOODEEG_Images\0479.jpg	NY	Right	Yes	0.731343799999195	0	297753	253
582.26953125	0	taste	response	1	51	51	foodImage.46	FOODEEG_Images\0479.jpg	NY	Right	Yes	0.731343799999195	0	298123	235
583.3125	1	decision	trialStart	1	52	52	foodImage.52	FOODEEG_Images\0539.jpg	YN	Left	Yes	0.717142999999851	0	298657	251
584.3671875	2	decision	foodImageDisplay	1	52	52	foodImage.52	FOODEEG_Images\0539.jpg	YN	Left	Yes	0.717142999999851	0	299197	252
586.4296875	0.717142999999851	decision	choicePhaseStart	1	52	52	foodImage.52	FOODEEG_Images\0539.jpg	YN	Left	Yes	0.717142999999851	0	300253	253
587.142578125	0	decision	response	1	52	52	foodImage.52	FOODEEG_Images\0539.jpg	YN	Left	Yes	0.717142999999851	0	300618	234
588.18359375	1	decision	trialStart	1	53	53	foodImage.78	FOODEEG_Images\0787.jpg	YN	Left	Yes	1.00879069999974	0	301151	251
589.23046875	2	decision	foodImageDisplay	1	53	53	foodImage.78	FOODEEG_Images\0787.jpg	YN	Left	Yes	1.00879069999974	0	301687	252
591.29296875	1.00879069999974	decision	choicePhaseStart	1	53	53	foodImage.78	FOODEEG_Images\0787.jpg	YN	Left	Yes	1.00879069999974	0	302743	253
592.29296875	0	decision	response	1	53	53	foodImage.78	FOODEEG_Images\0787.jpg	YN	Left	Yes	1.00879069999974	0	303255	234
593.341796875	1	health	trialStart	1	54	54	foodImage.102	FOODEEG_Images\0910.jpg	YN	Right	No	1.37573049999992	0	303792	251
594.3828125	2	health	foodImageDisplay	1	54	54	foodImage.102	FOODEEG_Images\0910.jpg	YN	Right	No	1.37573049999992	0	304325	252
596.447265625	1.37573049999992	health	choicePhaseStart	1	54	54	foodImage.102	FOODEEG_Images\0910.jpg	YN	Right	No	1.37573049999992	0	305382	253
597.8125	0	health	response	1	54	54	foodImage.102	FOODEEG_Images\0910.jpg	YN	Right	No	1.37573049999992	0	306081	235
598.85546875	1	taste	trialStart	1	55	55	foodImage.56	FOODEEG_Images\0586.jpg	NY	Right	Yes	0.967491399999744	0	306615	251
599.8984375	2	taste	foodImageDisplay	1	55	55	foodImage.56	FOODEEG_Images\0586.jpg	NY	Right	Yes	0.967491399999744	0	307149	252
601.966796875	0.967491399999744	taste	choicePhaseStart	1	55	55	foodImage.56	FOODEEG_Images\0586.jpg	NY	Right	Yes	0.967491399999744	0	308208	253
602.92578125	0	taste	response	1	55	55	foodImage.56	FOODEEG_Images\0586.jpg	NY	Right	Yes	0.967491399999744	0	308699	235
603.96875	1	taste	trialStart	1	56	56	foodImage.42	FOODEEG_Images\0438.jpg	YN	Left	Yes	1.01071070000035	0	309233	251
605.05859375	2	taste	foodImageDisplay	1	56	56	foodImage.42	FOODEEG_Images\0438.jpg	YN	Left	Yes	1.01071070000035	0	309791	252
607.123046875	1.01071070000035	taste	choicePhaseStart	1	56	56	foodImage.42	FOODEEG_Images\0438.jpg	YN	Left	Yes	1.01071070000035	0	310848	253
608.125	0	taste	response	1	56	56	foodImage.42	FOODEEG_Images\0438.jpg	YN	Left	Yes	1.01071070000035	0	311361	234
609.1640625	1	health	trialStart	1	57	57	foodImage.50	FOODEEG_Images\0529.jpg	YN	Left	Yes	0.71987530000024	0	311893	251
610.22265625	2	health	foodImageDisplay	1	57	57	foodImage.50	FOODEEG_Images\0529.jpg	YN	Left	Yes	0.71987530000024	0	312435	252
612.287109375	0.71987530000024	health	choicePhaseStart	1	57	57	foodImage.50	FOODEEG_Images\0529.jpg	YN	Left	Yes	0.71987530000024	0	313492	253
612.99609375	0	health	response	1	57	57	foodImage.50	FOODEEG_Images\0529.jpg	YN	Left	Yes	0.71987530000024	0	313855	234
614.044921875	1	decision	trialStart	1	58	58	foodImage.75	FOODEEG_Images\0763.jpg	NY	Right	Yes	0.723950499999773	0	314392	251
615.08984375	2	decision	foodImageDisplay	1	58	58	foodImage.75	FOODEEG_Images\0763.jpg	NY	Right	Yes	0.723950499999773	0	314927	252
617.154296875	0.723950499999773	decision	choicePhaseStart	1	58	58	foodImage.75	FOODEEG_Images\0763.jpg	NY	Right	Yes	0.723950499999773	0	315984	253
617.869140625	0	decision	response	1	58	58	foodImage.75	FOODEEG_Images\0763.jpg	NY	Right	Yes	0.723950499999773	0	316350	235
618.91015625	1	decision	trialStart	1	59	59	foodImage.17	FOODEEG_Images\0199.jpg	YN	Left	Yes	0.812573199999861	0	316883	251
619.953125	2	decision	foodImageDisplay	1	59	59	foodImage.17	FOODEEG_Images\0199.jpg	YN	Left	Yes	0.812573199999861	0	317417	252
622.015625	0.812573199999861	decision	choicePhaseStart	1	59	59	foodImage.17	FOODEEG_Images\0199.jpg	YN	Left	Yes	0.812573199999861	0	318473	253
622.8203125	0	decision	response	1	59	59	foodImage.17	FOODEEG_Images\0199.jpg	YN	Left	Yes	0.812573199999861	0	318885	234
623.86328125	1	health	trialStart	1	60	60	foodImage.35	FOODEEG_Images\0350.jpg	YN	Left	Yes	0.782445499999994	0	319419	251
624.904296875	2	health	foodImageDisplay	1	60	60	foodImage.35	FOODEEG_Images\0350.jpg	YN	Left	Yes	0.782445499999994	0	319952	252
626.966796875	0.782445499999994	health	choicePhaseStart	1	60	60	foodImage.35	FOODEEG_Images\0350.jpg	YN	Left	Yes	0.782445499999994	0	321008	253
627.740234375	0	health	response	1	60	60	foodImage.35	FOODEEG_Images\0350.jpg	YN	Left	Yes	0.782445499999994	0	321404	234
629.783203125	9.701171875	n/a	blockEnd	n/a	n/a	n/a	n/a	n/a	n/a	n/a	n/a	n/a	n/a	322450	254
639.484375	2	n/a	blockStart	2	n/a	n/a	n/a	n/a	n/a	n/a	n/a	n/a	n/a	327417	250
641.515625	1	health	trialStart	2	61	1	foodImage.80	FOODEEG_Images\0796.jpg	YN	Left	Yes	0.705661799999689	0	328457	251
642.578125	2	health	foodImageDisplay	2	61	1	foodImage.80	FOODEEG_Images\0796.jpg	YN	Left	Yes	0.705661799999689	0	329001	252
644.640625	0.705661799999689	health	choicePhaseStart	2	61	1	foodImage.80	FOODEEG_Images\0796.jpg	YN	Left	Yes	0.705661799999689	0	330057	253
645.33984375	0	health	response	2	61	1	foodImage.80	FOODEEG_Images\0796.jpg	YN	Left	Yes	0.705661799999689	0	330415	234
646.3828125	1	taste	trialStart	2	62	2	foodImage.115	FOODEEG_Images\0923.jpg	YN	Right	No	0.864939300000515	0	330949	251
647.423828125	2	taste	foodImageDisplay	2	62	2	foodImage.115	FOODEEG_Images\0923.jpg	YN	Right	No	0.864939300000515	0	331482	252
649.48828125	0.864939300000515	taste	choicePhaseStart	2	62	2	foodImage.115	FOODEEG_Images\0923.jpg	YN	Right	No	0.864939300000515	0	332539	253
650.34765625	0	taste	response	2	62	2	foodImage.115	FOODEEG_Images\0923.jpg	YN	Right	No	0.864939300000515	0	332979	235
651.39453125	1	taste	trialStart	2	63	3	foodImage.104	FOODEEG_Images\0912.jpg	NY	Right	Yes	0.891631800000141	0	333515	251
652.43359375	2	taste	foodImageDisplay	2	63	3	foodImage.104	FOODEEG_Images\0912.jpg	NY	Right	Yes	0.891631800000141	0	334047	252
654.49609375	0.891631800000141	taste	choicePhaseStart	2	63	3	foodImage.104	FOODEEG_Images\0912.jpg	NY	Right	Yes	0.891631800000141	0	335103	253
655.37890625	0	taste	response	2	63	3	foodImage.104	FOODEEG_Images\0912.jpg	NY	Right	Yes	0.891631800000141	0	335555	235
656.42578125	1	health	trialStart	2	64	4	foodImage.79	FOODEEG_Images\0794.jpg	NY	Right	Yes	0.549160800000209	0	336091	251
657.470703125	2	health	foodImageDisplay	2	64	4	foodImage.79	FOODEEG_Images\0794.jpg	NY	Right	Yes	0.549160800000209	0	336626	252
659.53515625	0.549160800000209	health	choicePhaseStart	2	64	4	foodImage.79	FOODEEG_Images\0794.jpg	NY	Right	Yes	0.549160800000209	0	337683	253
660.07421875	0	health	response	2	64	4	foodImage.79	FOODEEG_Images\0794.jpg	NY	Right	Yes	0.549160800000209	0	337959	235
661.1171875	1	taste	trialStart	2	65	5	foodImage.119	FOODEEG_Images\0927.jpg	YN	Right	No	0.852382200000648	0	338493	251
662.171875	2	taste	foodImageDisplay	2	65	5	foodImage.119	FOODEEG_Images\0927.jpg	YN	Right	No	0.852382200000648	0	339033	252
664.236328125	0.852382200000648	taste	choicePhaseStart	2	65	5	foodImage.119	FOODEEG_Images\0927.jpg	YN	Right	No	0.852382200000648	0	340090	253
665.08203125	0	taste	response	2	65	5	foodImage.119	FOODEEG_Images\0927.jpg	YN	Right	No	0.852382200000648	0	340523	235
666.125	1	decision	trialStart	2	66	6	foodImage.120	FOODEEG_Images\0928.jpg	NY	Left	No	1.26393649999955	0	341057	251
667.1640625	2	decision	foodImageDisplay	2	66	6	foodImage.120	FOODEEG_Images\0928.jpg	NY	Left	No	1.26393649999955	0	341589	252
669.228515625	1.26393649999955	decision	choicePhaseStart	2	66	6	foodImage.120	FOODEEG_Images\0928.jpg	NY	Left	No	1.26393649999955	0	342646	253
670.482421875	0	decision	response	2	66	6	foodImage.120	FOODEEG_Images\0928.jpg	NY	Left	No	1.26393649999955	0	343288	234
671.529296875	1	taste	trialStart	2	67	7	foodImage.25	FOODEEG_Images\0261.jpg	NY	Right	Yes	0.926452400000016	0	343824	251
672.572265625	2	taste	foodImageDisplay	2	67	7	foodImage.25	FOODEEG_Images\0261.jpg	NY	Right	Yes	0.926452400000016	0	344358	252
674.63671875	0.926452400000016	taste	choicePhaseStart	2	67	7	foodImage.25	FOODEEG_Images\0261.jpg	NY	Right	Yes	0.926452400000016	0	345415	253
675.5546875	0	taste	response	2	67	7	foodImage.25	FOODEEG_Images\0261.jpg	NY	Right	Yes	0.926452400000016	0	345885	235
676.6015625	1	taste	trialStart	2	68	8	foodImage.29	FOODEEG_Images\0278.jpg	YN	Left	Yes	1.07109940000009	0	346421	251
677.64453125	2	taste	foodImageDisplay	2	68	8	foodImage.29	FOODEEG_Images\0278.jpg	YN	Left	Yes	1.07109940000009	0	346955	252
679.708984375	1.07109940000009	taste	choicePhaseStart	2	68	8	foodImage.29	FOODEEG_Images\0278.jpg	YN	Left	Yes	1.07109940000009	0	348012	253
680.76953125	0	taste	response	2	68	8	foodImage.29	FOODEEG_Images\0278.jpg	YN	Left	Yes	1.07109940000009	0	348555	234
681.8125	1	taste	trialStart	2	69	9	foodImage.22	FOODEEG_Images\0236.jpg	YN	Left	Yes	0.668808200000058	0	349089	251
682.85546875	2	taste	foodImageDisplay	2	69	9	foodImage.22	FOODEEG_Images\0236.jpg	YN	Left	Yes	0.668808200000058	0	349623	252
684.91796875	0.668808200000058	taste	choicePhaseStart	2	69	9	foodImage.22	FOODEEG_Images\0236.jpg	YN	Left	Yes	0.668808200000058	0	350679	253
685.578125	0	taste	response	2	69	9	foodImage.22	FOODEEG_Images\0236.jpg	YN	Left	Yes	0.668808200000058	0	351017	234
686.619140625	1	taste	trialStart	2	70	10	foodImage.43	FOODEEG_Images\0445.jpg	YN	Left	Yes	0.707189300000209	0	351550	251
687.6796875	2	taste	foodImageDisplay	2	70	10	foodImage.43	FOODEEG_Images\0445.jpg	YN	Left	Yes	0.707189300000209	0	352093	252
689.7421875	0.707189300000209	taste	choicePhaseStart	2	70	10	foodImage.43	FOODEEG_Images\0445.jpg	YN	Left	Yes	0.707189300000209	0	353149	253
690.44140625	0	taste	response	2	70	10	foodImage.43	FOODEEG_Images\0445.jpg	YN	Left	Yes	0.707189300000209	0	353507	234
691.484375	1	taste	trialStart	2	71	11	foodImage.84	FOODEEG_Images\0830.jpg	YN	Left	Yes	0.594130100000257	0	354041	251
692.54296875	2	taste	foodImageDisplay	2	71	11	foodImage.84	FOODEEG_Images\0830.jpg	YN	Left	Yes	0.594130100000257	0	354583	252
694.607421875	0.594130100000257	taste	choicePhaseStart	2	71	11	foodImage.84	FOODEEG_Images\0830.jpg	YN	Left	Yes	0.594130100000257	0	355640	253
695.193359375	0	taste	response	2	71	11	foodImage.84	FOODEEG_Images\0830.jpg	YN	Left	Yes	0.594130100000257	0	355940	234
696.234375	1	health	trialStart	2	72	12	foodImage.20	FOODEEG_Images\0226.jpg	NY	Right	Yes	0.724818300000152	0	356473	251
697.27734375	2	health	foodImageDisplay	2	72	12	foodImage.20	FOODEEG_Images\0226.jpg	NY	Right	Yes	0.724818300000152	0	357007	252
699.341796875	0.724818300000152	health	choicePhaseStart	2	72	12	foodImage.20	FOODEEG_Images\0226.jpg	NY	Right	Yes	0.724818300000152	0	358064	253
700.056640625	0	health	response	2	72	12	foodImage.20	FOODEEG_Images\0226.jpg	NY	Right	Yes	0.724818300000152	0	358430	235
701.099609375	1	taste	trialStart	2	73	13	foodImage.100	FOODEEG_Images\0908.jpg	NY	Right	Yes	0.726246200000787	0	358964	251
702.140625	2	taste	foodImageDisplay	2	73	13	foodImage.100	FOODEEG_Images\0908.jpg	NY	Right	Yes	0.726246200000787	0	359497	252
704.203125	0.726246200000787	taste	choicePhaseStart	2	73	13	foodImage.100	FOODEEG_Images\0908.jpg	NY	Right	Yes	0.726246200000787	0	360553	253
704.919921875	0	taste	response	2	73	13	foodImage.100	FOODEEG_Images\0908.jpg	NY	Right	Yes	0.726246200000787	0	360920	235
705.962890625	1	decision	trialStart	2	74	14	foodImage.3	FOODEEG_Images\0046.jpg	YN	Left	Yes	1.1302766000008	0	361454	251
707.0078125	2	decision	foodImageDisplay	2	74	14	foodImage.3	FOODEEG_Images\0046.jpg	YN	Left	Yes	1.1302766000008	0	361989	252
709.072265625	1.1302766000008	decision	choicePhaseStart	2	74	14	foodImage.3	FOODEEG_Images\0046.jpg	YN	Left	Yes	1.1302766000008	0	363046	253
710.193359375	0	decision	response	2	74	14	foodImage.3	FOODEEG_Images\0046.jpg	YN	Left	Yes	1.1302766000008	0	363620	234
711.234375	1	health	trialStart	2	75	15	foodImage.114	FOODEEG_Images\0922.jpg	NY	Left	No	1.20882160000019	0	364153	251
712.2734375	2	health	foodImageDisplay	2	75	15	foodImage.114	FOODEEG_Images\0922.jpg	NY	Left	No	1.20882160000019	0	364685	252
714.337890625	1.20882160000019	health	choicePhaseStart	2	75	15	foodImage.114	FOODEEG_Images\0922.jpg	NY	Left	No	1.20882160000019	0	365742	253
715.537109375	0	health	response	2	75	15	foodImage.114	FOODEEG_Images\0922.jpg	NY	Left	No	1.20882160000019	0	366356	234
716.578125	1	decision	trialStart	2	76	16	foodImage.66	FOODEEG_Images\0676.jpg	YN	Left	Yes	0.801809799999319	0	366889	251
717.619140625	2	decision	foodImageDisplay	2	76	16	foodImage.66	FOODEEG_Images\0676.jpg	YN	Left	Yes	0.801809799999319	0	367422	252
719.6875	0.801809799999319	decision	choicePhaseStart	2	76	16	foodImage.66	FOODEEG_Images\0676.jpg	YN	Left	Yes	0.801809799999319	0	368481	253
720.48046875	0	decision	response	2	76	16	foodImage.66	FOODEEG_Images\0676.jpg	YN	Left	Yes	0.801809799999319	0	368887	234
721.5234375	1	decision	trialStart	2	77	17	foodImage.107	FOODEEG_Images\0915.jpg	NY	Left	No	1.33853540000018	0	369421	251
722.5625	2	decision	foodImageDisplay	2	77	17	foodImage.107	FOODEEG_Images\0915.jpg	NY	Left	No	1.33853540000018	0	369953	252
724.626953125	1.33853540000018	decision	choicePhaseStart	2	77	17	foodImage.107	FOODEEG_Images\0915.jpg	NY	Left	No	1.33853540000018	0	371010	253
725.958984375	0	decision	response	2	77	17	foodImage.107	FOODEEG_Images\0915.jpg	NY	Left	No	1.33853540000018	0	371692	234
727.001953125	1	health	trialStart	2	78	18	foodImage.8	FOODEEG_Images\0136.jpg	YN	Right	No	1.02892020000036	0	372226	251
728.044921875	2	health	foodImageDisplay	2	78	18	foodImage.8	FOODEEG_Images\0136.jpg	YN	Right	No	1.02892020000036	0	372760	252
730.109375	1.02892020000036	health	choicePhaseStart	2	78	18	foodImage.8	FOODEEG_Images\0136.jpg	YN	Right	No	1.02892020000036	0	373817	253
731.126953125	0	health	response	2	78	18	foodImage.8	FOODEEG_Images\0136.jpg	YN	Right	No	1.02892020000036	0	374338	235
732.169921875	1	decision	trialStart	2	79	19	foodImage.98	FOODEEG_Images\0906.jpg	YN	Right	No	0.825025999999525	0	374872	251
733.208984375	2	decision	foodImageDisplay	2	79	19	foodImage.98	FOODEEG_Images\0906.jpg	YN	Right	No	0.825025999999525	0	375404	252
735.271484375	0.825025999999525	decision	choicePhaseStart	2	79	19	foodImage.98	FOODEEG_Images\0906.jpg	YN	Right	No	0.825025999999525	0	376460	253
736.087890625	0	decision	response	2	79	19	foodImage.98	FOODEEG_Images\0906.jpg	YN	Right	No	0.825025999999525	0	376878	235
737.12890625	1	decision	trialStart	2	80	20	foodImage.33	FOODEEG_Images\0329.jpg	YN	Left	Yes	0.890689400000156	0	377411	251
738.173828125	2	decision	foodImageDisplay	2	80	20	foodImage.33	FOODEEG_Images\0329.jpg	YN	Left	Yes	0.890689400000156	0	377946	252
740.23828125	0.890689400000156	decision	choicePhaseStart	2	80	20	foodImage.33	FOODEEG_Images\0329.jpg	YN	Left	Yes	0.890689400000156	0	379003	253
741.119140625	0	decision	response	2	80	20	foodImage.33	FOODEEG_Images\0329.jpg	YN	Left	Yes	0.890689400000156	0	379454	234
742.162109375	1	health	trialStart	2	81	21	foodImage.34	FOODEEG_Images\0339.jpg	YN	Right	No	0.691191599999911	0	379988	251
743.220703125	2	health	foodImageDisplay	2	81	21	foodImage.34	FOODEEG_Images\0339.jpg	YN	Right	No	0.691191599999911	0	380530	252
745.283203125	0.691191599999911	health	choicePhaseStart	2	81	21	foodImage.34	FOODEEG_Images\0339.jpg	YN	Right	No	0.691191599999911	0	381586	253
745.966796875	0	health	response	2	81	21	foodImage.34	FOODEEG_Images\0339.jpg	YN	Right	No	0.691191599999911	0	381936	235
747.025390625	1	taste	trialStart	2	82	22	foodImage.20	FOODEEG_Images\0226.jpg	YN	Left	Yes	1.01254359999984	0	382478	251
748.068359375	2	taste	foodImageDisplay	2	82	22	foodImage.20	FOODEEG_Images\0226.jpg	YN	Left	Yes	1.01254359999984	0	383012	252
750.130859375	1.01254359999984	taste	choicePhaseStart	2	82	22	foodImage.20	FOODEEG_Images\0226.jpg	YN	Left	Yes	1.01254359999984	0	384068	253
751.134765625	0	taste	response	2	82	22	foodImage.20	FOODEEG_Images\0226.jpg	YN	Left	Yes	1.01254359999984	0	384582	234
752.177734375	1	health	trialStart	2	83	23	foodImage.47	FOODEEG_Images\0488.jpg	YN	Right	No	1.62607759999992	0	385116	251
753.220703125	2	health	foodImageDisplay	2	83	23	foodImage.47	FOODEEG_Images\0488.jpg	YN	Right	No	1.62607759999992	0	385650	252
755.28515625	1.62607759999992	health	choicePhaseStart	2	83	23	foodImage.47	FOODEEG_Images\0488.jpg	YN	Right	No	1.62607759999992	0	386707	253
756.90234375	0	health	response	2	83	23	foodImage.47	FOODEEG_Images\0488.jpg	YN	Right	No	1.62607759999992	0	387535	235
757.9453125	1	taste	trialStart	2	84	24	foodImage.30	FOODEEG_Images\0282.jpg	NY	Right	Yes	0.70932619999985	0	388069	251
758.986328125	2	taste	foodImageDisplay	2	84	24	foodImage.30	FOODEEG_Images\0282.jpg	NY	Right	Yes	0.70932619999985	0	388602	252
761.05078125	0.70932619999985	taste	choicePhaseStart	2	84	24	foodImage.30	FOODEEG_Images\0282.jpg	NY	Right	Yes	0.70932619999985	0	389659	253
761.75	0	taste	response	2	84	24	foodImage.30	FOODEEG_Images\0282.jpg	NY	Right	Yes	0.70932619999985	0	390017	235
762.79296875	1	decision	trialStart	2	85	25	foodImage.65	FOODEEG_Images\0658.jpg	NY	Right	Yes	0.621676100000514	0	390551	251
763.833984375	2	decision	foodImageDisplay	2	85	25	foodImage.65	FOODEEG_Images\0658.jpg	NY	Right	Yes	0.621676100000514	0	391084	252
765.896484375	0.621676100000514	decision	choicePhaseStart	2	85	25	foodImage.65	FOODEEG_Images\0658.jpg	NY	Right	Yes	0.621676100000514	0	392140	253
766.509765625	0	decision	response	2	85	25	foodImage.65	FOODEEG_Images\0658.jpg	NY	Right	Yes	0.621676100000514	0	392454	235
767.552734375	1	health	trialStart	2	86	26	foodImage.74	FOODEEG_Images\0752.jpg	YN	Left	Yes	1.09594779999952	0	392988	251
768.59765625	2	health	foodImageDisplay	2	86	26	foodImage.74	FOODEEG_Images\0752.jpg	YN	Left	Yes	1.09594779999952	0	393523	252
770.66015625	1.09594779999952	health	choicePhaseStart	2	86	26	foodImage.74	FOODEEG_Images\0752.jpg	YN	Left	Yes	1.09594779999952	0	394579	253
771.75	0	health	response	2	86	26	foodImage.74	FOODEEG_Images\0752.jpg	YN	Left	Yes	1.09594779999952	0	395137	234
772.791015625	1	taste	trialStart	2	87	27	foodImage.85	FOODEEG_Images\0841.jpg	YN	Left	Yes	0.703359000000091	0	395670	251
773.849609375	2	taste	foodImageDisplay	2	87	27	foodImage.85	FOODEEG_Images\0841.jpg	YN	Left	Yes	0.703359000000091	0	396212	252
775.912109375	0.703359000000091	taste	choicePhaseStart	2	87	27	foodImage.85	FOODEEG_Images\0841.jpg	YN	Left	Yes	0.703359000000091	0	397268	253
776.607421875	0	taste	response	2	87	27	foodImage.85	FOODEEG_Images\0841.jpg	YN	Left	Yes	0.703359000000091	0	397624	234
777.6484375	1	taste	trialStart	2	88	28	foodImage.1	FOODEEG_Images\0004.jpg	NY	Right	Yes	0.722510800000236	0	398157	251
778.693359375	2	taste	foodImageDisplay	2	88	28	foodImage.1	FOODEEG_Images\0004.jpg	NY	Right	Yes	0.722510800000236	0	398692	252
780.755859375	0.722510800000236	taste	choicePhaseStart	2	88	28	foodImage.1	FOODEEG_Images\0004.jpg	NY	Right	Yes	0.722510800000236	0	399748	253
781.470703125	0	taste	response	2	88	28	foodImage.1	FOODEEG_Images\0004.jpg	NY	Right	Yes	0.722510800000236	0	400114	235
782.51171875	1	health	trialStart	2	89	29	foodImage.12	FOODEEG_Images\0181.jpg	NY	Right	Yes	0.573491199999808	0	400647	251
783.5546875	2	health	foodImageDisplay	2	89	29	foodImage.12	FOODEEG_Images\0181.jpg	NY	Right	Yes	0.573491199999808	0	401181	252
785.6171875	0.573491199999808	health	choicePhaseStart	2	89	29	foodImage.12	FOODEEG_Images\0181.jpg	NY	Right	Yes	0.573491199999808	0	402237	253
786.181640625	0	health	response	2	89	29	foodImage.12	FOODEEG_Images\0181.jpg	NY	Right	Yes	0.573491199999808	0	402526	235
787.224609375	1	decision	trialStart	2	90	30	foodImage.20	FOODEEG_Images\0226.jpg	YN	Left	Yes	0.654422999999952	0	403060	251
788.265625	2	decision	foodImageDisplay	2	90	30	foodImage.20	FOODEEG_Images\0226.jpg	YN	Left	Yes	0.654422999999952	0	403593	252
790.328125	0.654422999999952	decision	choicePhaseStart	2	90	30	foodImage.20	FOODEEG_Images\0226.jpg	YN	Left	Yes	0.654422999999952	0	404649	253
790.97265625	0	decision	response	2	90	30	foodImage.20	FOODEEG_Images\0226.jpg	YN	Left	Yes	0.654422999999952	0	404979	234
792.015625	1	taste	trialStart	2	91	31	foodImage.113	FOODEEG_Images\0921.jpg	YN	Left	Yes	3.15184119999958	0	405513	251
793.0546875	2	taste	foodImageDisplay	2	91	31	foodImage.113	FOODEEG_Images\0921.jpg	YN	Left	Yes	3.15184119999958	0	406045	252
795.119140625	3.15184119999958	taste	choicePhaseStart	2	91	31	foodImage.113	FOODEEG_Images\0921.jpg	YN	Left	Yes	3.15184119999958	0	407102	253
798.26171875	0	taste	response	2	91	31	foodImage.113	FOODEEG_Images\0921.jpg	YN	Left	Yes	3.15184119999958	0	408711	234
799.3046875	1	taste	trialStart	2	92	32	foodImage.32	FOODEEG_Images\0319.jpg	YN	Left	Yes	1.5220774999998	0	409245	251
800.349609375	2	taste	foodImageDisplay	2	92	32	foodImage.32	FOODEEG_Images\0319.jpg	YN	Left	Yes	1.5220774999998	0	409780	252
802.412109375	1.5220774999998	taste	choicePhaseStart	2	92	32	foodImage.32	FOODEEG_Images\0319.jpg	YN	Left	Yes	1.5220774999998	0	410836	253
803.92578125	0	taste	response	2	92	32	foodImage.32	FOODEEG_Images\0319.jpg	YN	Left	Yes	1.5220774999998	0	411611	234
804.966796875	1	decision	trialStart	2	93	33	foodImage.50	FOODEEG_Images\0529.jpg	YN	Left	Yes	0.830103499999495	0	412144	251
806.0234375	2	decision	foodImageDisplay	2	93	33	foodImage.50	FOODEEG_Images\0529.jpg	YN	Left	Yes	0.830103499999495	0	412685	252
808.087890625	0.830103499999495	decision	choicePhaseStart	2	93	33	foodImage.50	FOODEEG_Images\0529.jpg	YN	Left	Yes	0.830103499999495	0	413742	253
808.908203125	0	decision	response	2	93	33	foodImage.50	FOODEEG_Images\0529.jpg	YN	Left	Yes	0.830103499999495	0	414162	234
809.951171875	1	health	trialStart	2	94	34	foodImage.18	FOODEEG_Images\0202.jpg	YN	Left	Yes	0.674558000000616	0	414696	251
811.009765625	2	health	foodImageDisplay	2	94	34	foodImage.18	FOODEEG_Images\0202.jpg	YN	Left	Yes	0.674558000000616	0	415238	252
813.076171875	0.674558000000616	health	choicePhaseStart	2	94	34	foodImage.18	FOODEEG_Images\0202.jpg	YN	Left	Yes	0.674558000000616	0	416296	253
813.740234375	0	health	response	2	94	34	foodImage.18	FOODEEG_Images\0202.jpg	YN	Left	Yes	0.674558000000616	0	416636	234
814.783203125	1	taste	trialStart	2	95	35	foodImage.11	FOODEEG_Images\0180.jpg	YN	Left	Yes	0.675552199999402	0	417170	251
815.826171875	2	taste	foodImageDisplay	2	95	35	foodImage.11	FOODEEG_Images\0180.jpg	YN	Left	Yes	0.675552199999402	0	417704	252
817.890625	0.675552199999402	taste	choicePhaseStart	2	95	35	foodImage.11	FOODEEG_Images\0180.jpg	YN	Left	Yes	0.675552199999402	0	418761	253
818.556640625	0	taste	response	2	95	35	foodImage.11	FOODEEG_Images\0180.jpg	YN	Left	Yes	0.675552199999402	0	419102	234
819.599609375	1	decision	trialStart	2	96	36	foodImage.13	FOODEEG_Images\0183.jpg	NY	Right	Yes	0.994816699999319	0	419636	251
820.640625	2	decision	foodImageDisplay	2	96	36	foodImage.13	FOODEEG_Images\0183.jpg	NY	Right	Yes	0.994816699999319	0	420169	252
822.705078125	0.994816699999319	decision	choicePhaseStart	2	96	36	foodImage.13	FOODEEG_Images\0183.jpg	NY	Right	Yes	0.994816699999319	0	421226	253
823.69140625	0	decision	response	2	96	36	foodImage.13	FOODEEG_Images\0183.jpg	NY	Right	Yes	0.994816699999319	0	421731	235
824.734375	1	taste	trialStart	2	97	37	foodImage.114	FOODEEG_Images\0922.jpg	YN	Left	Yes	0.887228900000082	0	422265	251
825.7734375	2	taste	foodImageDisplay	2	97	37	foodImage.114	FOODEEG_Images\0922.jpg	YN	Left	Yes	0.887228900000082	0	422797	252
827.837890625	0.887228900000082	taste	choicePhaseStart	2	97	37	foodImage.114	FOODEEG_Images\0922.jpg	YN	Left	Yes	0.887228900000082	0	423854	253
828.716796875	0	taste	response	2	97	37	foodImage.114	FOODEEG_Images\0922.jpg	YN	Left	Yes	0.887228900000082	0	424304	234
829.759765625	1	health	trialStart	2	98	38	foodImage.22	FOODEEG_Images\0236.jpg	NY	Right	Yes	1.31622669999979	0	424838	251
830.80078125	2	health	foodImageDisplay	2	98	38	foodImage.22	FOODEEG_Images\0236.jpg	NY	Right	Yes	1.31622669999979	0	425371	252
832.865234375	1.31622669999979	health	choicePhaseStart	2	98	38	foodImage.22	FOODEEG_Images\0236.jpg	NY	Right	Yes	1.31622669999979	0	426428	253
834.171875	0	health	response	2	98	38	foodImage.22	FOODEEG_Images\0236.jpg	NY	Right	Yes	1.31622669999979	0	427097	235
835.212890625	1	health	trialStart	2	99	39	foodImage.90	FOODEEG_Images\0890.jpg	YN	Left	Yes	0.835827199999585	0	427630	251
836.2734375	2	health	foodImageDisplay	2	99	39	foodImage.90	FOODEEG_Images\0890.jpg	YN	Left	Yes	0.835827199999585	0	428173	252
838.3359375	0.835827199999585	health	choicePhaseStart	2	99	39	foodImage.90	FOODEEG_Images\0890.jpg	YN	Left	Yes	0.835827199999585	0	429229	253
839.1640625	0	health	response	2	99	39	foodImage.90	FOODEEG_Images\0890.jpg	YN	Left	Yes	0.835827199999585	0	429653	234
840.205078125	1	decision	trialStart	2	100	40	foodImage.41	FOODEEG_Images\0409.jpg	NY	Right	Yes	1.09956460000012	0	430186	251
841.251953125	2	decision	foodImageDisplay	2	100	40	foodImage.41	FOODEEG_Images\0409.jpg	NY	Right	Yes	1.09956460000012	0	430722	252
843.3203125	1.09956460000012	decision	choicePhaseStart	2	100	40	foodImage.41	FOODEEG_Images\0409.jpg	NY	Right	Yes	1.09956460000012	0	431781	253
844.412109375	0	decision	response	2	100	40	foodImage.41	FOODEEG_Images\0409.jpg	NY	Right	Yes	1.09956460000012	0	432340	235
845.453125	1	decision	trialStart	2	101	41	foodImage.40	FOODEEG_Images\0373.jpg	YN	Left	Yes	0.736079299999801	0	432873	251
846.49609375	2	decision	foodImageDisplay	2	101	41	foodImage.40	FOODEEG_Images\0373.jpg	YN	Left	Yes	0.736079299999801	0	433407	252
848.564453125	0.736079299999801	decision	choicePhaseStart	2	101	41	foodImage.40	FOODEEG_Images\0373.jpg	YN	Left	Yes	0.736079299999801	0	434466	253
849.291015625	0	decision	response	2	101	41	foodImage.40	FOODEEG_Images\0373.jpg	YN	Left	Yes	0.736079299999801	0	434838	234
850.333984375	1	health	trialStart	2	102	42	foodImage.95	FOODEEG_Images\0903.jpg	NY	Left	No	1.17008780000015	0	435372	251
851.37109375	2	health	foodImageDisplay	2	102	42	foodImage.95	FOODEEG_Images\0903.jpg	NY	Left	No	1.17008780000015	0	435903	252
853.43359375	1.17008780000015	health	choicePhaseStart	2	102	42	foodImage.95	FOODEEG_Images\0903.jpg	NY	Left	No	1.17008780000015	0	436959	253
854.595703125	0	health	response	2	102	42	foodImage.95	FOODEEG_Images\0903.jpg	NY	Left	No	1.17008780000015	0	437554	234
855.63671875	1	health	trialStart	2	103	43	foodImage.78	FOODEEG_Images\0787.jpg	YN	Left	Yes	0.690122599999995	0	438087	251
856.681640625	2	health	foodImageDisplay	2	103	43	foodImage.78	FOODEEG_Images\0787.jpg	YN	Left	Yes	0.690122599999995	0	438622	252
858.74609375	0.690122599999995	health	choicePhaseStart	2	103	43	foodImage.78	FOODEEG_Images\0787.jpg	YN	Left	Yes	0.690122599999995	0	439679	253
859.427734375	0	health	response	2	103	43	foodImage.78	FOODEEG_Images\0787.jpg	YN	Left	Yes	0.690122599999995	0	440028	234
860.46875	1	decision	trialStart	2	104	44	foodImage.108	FOODEEG_Images\0916.jpg	YN	Right	No	0.703205499999967	0	440561	251
861.515625	2	decision	foodImageDisplay	2	104	44	foodImage.108	FOODEEG_Images\0916.jpg	YN	Right	No	0.703205499999967	0	441097	252
863.580078125	0.703205499999967	decision	choicePhaseStart	2	104	44	foodImage.108	FOODEEG_Images\0916.jpg	YN	Right	No	0.703205499999967	0	442154	253
864.2734375	0	decision	response	2	104	44	foodImage.108	FOODEEG_Images\0916.jpg	YN	Right	No	0.703205499999967	0	442509	235
865.31640625	1	taste	trialStart	2	105	45	foodImage.109	FOODEEG_Images\0917.jpg	NY	Left	No	0.943467600000076	0	443043	251
866.35546875	2	taste	foodImageDisplay	2	105	45	foodImage.109	FOODEEG_Images\0917.jpg	NY	Left	No	0.943467600000076	0	443575	252
868.419921875	0.943467600000076	taste	choicePhaseStart	2	105	45	foodImage.109	FOODEEG_Images\0917.jpg	NY	Left	No	0.943467600000076	0	444632	253
869.353515625	0	taste	response	2	105	45	foodImage.109	FOODEEG_Images\0917.jpg	NY	Left	No	0.943467600000076	0	445110	234
870.39453125	1	health	trialStart	2	106	46	foodImage.84	FOODEEG_Images\0830.jpg	YN	Left	Yes	0.778123799999776	0	445643	251
871.455078125	2	health	foodImageDisplay	2	106	46	foodImage.84	FOODEEG_Images\0830.jpg	YN	Left	Yes	0.778123799999776	0	446186	252
873.51953125	0.778123799999776	health	choicePhaseStart	2	106	46	foodImage.84	FOODEEG_Images\0830.jpg	YN	Left	Yes	0.778123799999776	0	447243	253
874.291015625	0	health	response	2	106	46	foodImage.84	FOODEEG_Images\0830.jpg	YN	Left	Yes	0.778123799999776	0	447638	234
875.33203125	1	taste	trialStart	2	107	47	foodImage.70	FOODEEG_Images\0705.jpg	NY	Right	Yes	0.698334900000191	0	448171	251
876.400390625	2	taste	foodImageDisplay	2	107	47	foodImage.70	FOODEEG_Images\0705.jpg	NY	Right	Yes	0.698334900000191	0	448718	252
878.462890625	0.698334900000191	taste	choicePhaseStart	2	107	47	foodImage.70	FOODEEG_Images\0705.jpg	NY	Right	Yes	0.698334900000191	0	449774	253
879.154296875	0	taste	response	2	107	47	foodImage.70	FOODEEG_Images\0705.jpg	NY	Right	Yes	0.698334900000191	0	450128	235
880.205078125	1	taste	trialStart	2	108	48	foodImage.17	FOODEEG_Images\0199.jpg	YN	Left	Yes	0.596728900000016	0	450666	251
881.24609375	2	taste	foodImageDisplay	2	108	48	foodImage.17	FOODEEG_Images\0199.jpg	YN	Left	Yes	0.596728900000016	0	451199	252
883.310546875	0.596728900000016	taste	choicePhaseStart	2	108	48	foodImage.17	FOODEEG_Images\0199.jpg	YN	Left	Yes	0.596728900000016	0	452256	253
883.8984375	0	taste	response	2	108	48	foodImage.17	FOODEEG_Images\0199.jpg	YN	Left	Yes	0.596728900000016	0	452557	234
884.9453125	1	health	trialStart	2	109	49	foodImage.57	FOODEEG_Images\0587.jpg	YN	Right	No	1.17353700000058	0	453093	251
885.99609375	2	health	foodImageDisplay	2	109	49	foodImage.57	FOODEEG_Images\0587.jpg	YN	Right	No	1.17353700000058	0	453631	252
888.06640625	1.17353700000058	health	choicePhaseStart	2	109	49	foodImage.57	FOODEEG_Images\0587.jpg	YN	Right	No	1.17353700000058	0	454691	253
889.234375	0	health	response	2	109	49	foodImage.57	FOODEEG_Images\0587.jpg	YN	Right	No	1.17353700000058	0	455289	235
890.27734375	1	taste	trialStart	2	110	50	foodImage.38	FOODEEG_Images\0365.jpg	NY	Right	Yes	0.754988800000319	0	455823	251
891.328125	2	taste	foodImageDisplay	2	110	50	foodImage.38	FOODEEG_Images\0365.jpg	NY	Right	Yes	0.754988800000319	0	456361	252
893.392578125	0.754988800000319	taste	choicePhaseStart	2	110	50	foodImage.38	FOODEEG_Images\0365.jpg	NY	Right	Yes	0.754988800000319	0	457418	253
894.138671875	0	taste	response	2	110	50	foodImage.38	FOODEEG_Images\0365.jpg	NY	Right	Yes	0.754988800000319	0	457800	235
895.185546875	1	taste	trialStart	2	111	51	foodImage.6	FOODEEG_Images\0113.jpg	YN	Left	Yes	0.804040799999711	0	458336	251
896.228515625	2	taste	foodImageDisplay	2	111	51	foodImage.6	FOODEEG_Images\0113.jpg	YN	Left	Yes	0.804040799999711	0	458870	252
898.29296875	0.804040799999711	taste	choicePhaseStart	2	111	51	foodImage.6	FOODEEG_Images\0113.jpg	YN	Left	Yes	0.804040799999711	0	459927	253
899.08984375	0	taste	response	2	111	51	foodImage.6	FOODEEG_Images\0113.jpg	YN	Left	Yes	0.804040799999711	0	460335	234
900.154296875	1	health	trialStart	2	112	52	foodImage.67	FOODEEG_Images\0679.jpg	YN	Right	No	1.38370579999992	0	460880	251
901.212890625	2	health	foodImageDisplay	2	112	52	foodImage.67	FOODEEG_Images\0679.jpg	YN	Right	No	1.38370579999992	0	461422	252
903.279296875	1.38370579999992	health	choicePhaseStart	2	112	52	foodImage.67	FOODEEG_Images\0679.jpg	YN	Right	No	1.38370579999992	0	462480	253
904.65625	0	health	response	2	112	52	foodImage.67	FOODEEG_Images\0679.jpg	YN	Right	No	1.38370579999992	0	463185	235
905.69921875	1	taste	trialStart	2	113	53	foodImage.79	FOODEEG_Images\0794.jpg	YN	Left	Yes	1.16192779999983	0	463719	251
906.7421875	2	taste	foodImageDisplay	2	113	53	foodImage.79	FOODEEG_Images\0794.jpg	YN	Left	Yes	1.16192779999983	0	464253	252
908.806640625	1.16192779999983	taste	choicePhaseStart	2	113	53	foodImage.79	FOODEEG_Images\0794.jpg	YN	Left	Yes	1.16192779999983	0	465310	253
909.9609375	0	taste	response	2	113	53	foodImage.79	FOODEEG_Images\0794.jpg	YN	Left	Yes	1.16192779999983	0	465901	234
911.00390625	1	decision	trialStart	2	114	54	foodImage.91	FOODEEG_Images\0896.jpg	YN	Left	Yes	0.657380200000262	0	466435	251
912.064453125	2	decision	foodImageDisplay	2	114	54	foodImage.91	FOODEEG_Images\0896.jpg	YN	Left	Yes	0.657380200000262	0	466978	252
914.12890625	0.657380200000262	decision	choicePhaseStart	2	114	54	foodImage.91	FOODEEG_Images\0896.jpg	YN	Left	Yes	0.657380200000262	0	468035	253
914.77734375	0	decision	response	2	114	54	foodImage.91	FOODEEG_Images\0896.jpg	YN	Left	Yes	0.657380200000262	0	468367	234
915.818359375	1	health	trialStart	2	115	55	foodImage.76	FOODEEG_Images\0766.jpg	NY	Right	Yes	0.83706710000024	0	468900	251
916.865234375	2	health	foodImageDisplay	2	115	55	foodImage.76	FOODEEG_Images\0766.jpg	NY	Right	Yes	0.83706710000024	0	469436	252
918.9296875	0.83706710000024	health	choicePhaseStart	2	115	55	foodImage.76	FOODEEG_Images\0766.jpg	NY	Right	Yes	0.83706710000024	0	470493	253
919.759765625	0	health	response	2	115	55	foodImage.76	FOODEEG_Images\0766.jpg	NY	Right	Yes	0.83706710000024	0	470918	235
920.806640625	1	taste	trialStart	2	116	56	foodImage.36	FOODEEG_Images\0352.jpg	NY	Right	Yes	0.686986400000023	0	471454	251
921.8671875	2	taste	foodImageDisplay	2	116	56	foodImage.36	FOODEEG_Images\0352.jpg	NY	Right	Yes	0.686986400000023	0	471997	252
923.9296875	0.686986400000023	taste	choicePhaseStart	2	116	56	foodImage.36	FOODEEG_Images\0352.jpg	NY	Right	Yes	0.686986400000023	0	473053	253
924.607421875	0	taste	response	2	116	56	foodImage.36	FOODEEG_Images\0352.jpg	NY	Right	Yes	0.686986400000023	0	473400	235
925.65234375	1	taste	trialStart	2	117	57	foodImage.67	FOODEEG_Images\0679.jpg	YN	Right	No	0.747519300000022	0	473935	251
926.734375	2	taste	foodImageDisplay	2	117	57	foodImage.67	FOODEEG_Images\0679.jpg	YN	Right	No	0.747519300000022	0	474489	252
928.796875	0.747519300000022	taste	choicePhaseStart	2	117	57	foodImage.67	FOODEEG_Images\0679.jpg	YN	Right	No	0.747519300000022	0	475545	253
929.53515625	0	taste	response	2	117	57	foodImage.67	FOODEEG_Images\0679.jpg	YN	Right	No	0.747519300000022	0	475923	235
930.583984375	1	taste	trialStart	2	118	58	foodImage.48	FOODEEG_Images\0494.jpg	NY	Right	Yes	0.67014829999971	0	476460	251
931.626953125	2	taste	foodImageDisplay	2	118	58	foodImage.48	FOODEEG_Images\0494.jpg	NY	Right	Yes	0.67014829999971	0	476994	252
933.69140625	0.67014829999971	taste	choicePhaseStart	2	118	58	foodImage.48	FOODEEG_Images\0494.jpg	NY	Right	Yes	0.67014829999971	0	478051	253
934.3515625	0	taste	response	2	118	58	foodImage.48	FOODEEG_Images\0494.jpg	NY	Right	Yes	0.67014829999971	0	478389	235
935.39453125	1	taste	trialStart	2	119	59	foodImage.37	FOODEEG_Images\0359.jpg	NY	Right	Yes	0.708545399999821	0	478923	251
936.435546875	2	taste	foodImageDisplay	2	119	59	foodImage.37	FOODEEG_Images\0359.jpg	NY	Right	Yes	0.708545399999821	0	479456	252
938.5	0.708545399999821	taste	choicePhaseStart	2	119	59	foodImage.37	FOODEEG_Images\0359.jpg	NY	Right	Yes	0.708545399999821	0	480513	253
939.19921875	0	taste	response	2	119	59	foodImage.37	FOODEEG_Images\0359.jpg	NY	Right	Yes	0.708545399999821	0	480871	235
940.24609375	1	taste	trialStart	2	120	60	foodImage.117	FOODEEG_Images\0925.jpg	NY	Left	No	0.610870800000157	0	481407	251
941.28515625	2	taste	foodImageDisplay	2	120	60	foodImage.117	FOODEEG_Images\0925.jpg	NY	Left	No	0.610870800000157	0	481939	252
943.349609375	0.610870800000157	taste	choicePhaseStart	2	120	60	foodImage.117	FOODEEG_Images\0925.jpg	NY	Left	No	0.610870800000157	0	482996	253
943.951171875	0	taste	response	2	120	60	foodImage.117	FOODEEG_Images\0925.jpg	NY	Left	No	0.610870800000157	0	483304	234
945.990234375	28.375	n/a	blockEnd	n/a	n/a	n/a	n/a	n/a	n/a	n/a	n/a	n/a	n/a	484348	254
974.365234375	2	n/a	blockStart	3	n/a	n/a	n/a	n/a	n/a	n/a	n/a	n/a	n/a	498876	250
976.400390625	1	taste	trialStart	3	121	1	foodImage.120	FOODEEG_Images\0928.jpg	NY	Left	No	0.855326900000364	0	499918	251
977.439453125	2	taste	foodImageDisplay	3	121	1	foodImage.120	FOODEEG_Images\0928.jpg	NY	Left	No	0.855326900000364	0	500450	252
979.501953125	0.855326900000364	taste	choicePhaseStart	3	121	1	foodImage.120	FOODEEG_Images\0928.jpg	NY	Left	No	0.855326900000364	0	501506	253
980.349609375	0	taste	response	3	121	1	foodImage.120	FOODEEG_Images\0928.jpg	NY	Left	No	0.855326900000364	0	501940	234
981.392578125	1	taste	trialStart	3	122	2	foodImage.2	FOODEEG_Images\0028.jpg	YN	Left	Yes	0.668571399999564	0	502474	251
982.435546875	2	taste	foodImageDisplay	3	122	2	foodImage.2	FOODEEG_Images\0028.jpg	YN	Left	Yes	0.668571399999564	0	503008	252
984.498046875	0.668571399999564	taste	choicePhaseStart	3	122	2	foodImage.2	FOODEEG_Images\0028.jpg	YN	Left	Yes	0.668571399999564	0	504064	253
985.158203125	0	taste	response	3	122	2	foodImage.2	FOODEEG_Images\0028.jpg	YN	Left	Yes	0.668571399999564	0	504402	234
986.201171875	1	health	trialStart	3	123	3	foodImage.55	FOODEEG_Images\0567.jpg	NY	Right	Yes	0.795027799999843	0	504936	251
987.26171875	2	health	foodImageDisplay	3	123	3	foodImage.55	FOODEEG_Images\0567.jpg	NY	Right	Yes	0.795027799999843	0	505479	252
989.32421875	0.795027799999843	health	choicePhaseStart	3	123	3	foodImage.55	FOODEEG_Images\0567.jpg	NY	Right	Yes	0.795027799999843	0	506535	253
990.109375	0	health	response	3	123	3	foodImage.55	FOODEEG_Images\0567.jpg	NY	Right	Yes	0.795027799999843	0	506937	235
991.15234375	1	taste	trialStart	3	124	4	foodImage.16	FOODEEG_Images\0196.jpg	NY	Right	Yes	0.512896600000204	0	507471	251
992.212890625	2	taste	foodImageDisplay	3	124	4	foodImage.16	FOODEEG_Images\0196.jpg	NY	Right	Yes	0.512896600000204	0	508014	252
994.27734375	0.512896600000204	taste	choicePhaseStart	3	124	4	foodImage.16	FOODEEG_Images\0196.jpg	NY	Right	Yes	0.512896600000204	0	509071	253
994.78125	0	taste	response	3	124	4	foodImage.16	FOODEEG_Images\0196.jpg	NY	Right	Yes	0.512896600000204	0	509329	235
995.82421875	1	decision	trialStart	3	125	5	foodImage.68	FOODEEG_Images\0685.jpg	YN	Left	Yes	0.814453599999979	0	509863	251
996.90234375	2	decision	foodImageDisplay	3	125	5	foodImage.68	FOODEEG_Images\0685.jpg	YN	Left	Yes	0.814453599999979	0	510415	252
998.96484375	0.814453599999979	decision	choicePhaseStart	3	125	5	foodImage.68	FOODEEG_Images\0685.jpg	YN	Left	Yes	0.814453599999979	0	511471	253
999.7734375	0	decision	response	3	125	5	foodImage.68	FOODEEG_Images\0685.jpg	YN	Left	Yes	0.814453599999979	0	511885	234
1000.81640625	1	health	trialStart	3	126	6	foodImage.112	FOODEEG_Images\0920.jpg	NY	Left	No	1.23563490000015	0	512419	251
1001.857421875	2	health	foodImageDisplay	3	126	6	foodImage.112	FOODEEG_Images\0920.jpg	NY	Left	No	1.23563490000015	0	512952	252
1003.921875	1.23563490000015	health	choicePhaseStart	3	126	6	foodImage.112	FOODEEG_Images\0920.jpg	NY	Left	No	1.23563490000015	0	514009	253
1005.1484375	0	health	response	3	126	6	foodImage.112	FOODEEG_Images\0920.jpg	NY	Left	No	1.23563490000015	0	514637	234
1006.197265625	1	decision	trialStart	3	127	7	foodImage.49	FOODEEG_Images\0515.jpg	NY	Right	Yes	0.775295800000094	0	515174	251
1007.23828125	2	decision	foodImageDisplay	3	127	7	foodImage.49	FOODEEG_Images\0515.jpg	NY	Right	Yes	0.775295800000094	0	515707	252
1009.302734375	0.775295800000094	decision	choicePhaseStart	3	127	7	foodImage.49	FOODEEG_Images\0515.jpg	NY	Right	Yes	0.775295800000094	0	516764	253
1010.068359375	0	decision	response	3	127	7	foodImage.49	FOODEEG_Images\0515.jpg	NY	Right	Yes	0.775295800000094	0	517156	235
1011.1171875	1	taste	trialStart	3	128	8	foodImage.90	FOODEEG_Images\0890.jpg	YN	Left	Yes	0.953268400000525	0	517693	251
1012.173828125	2	taste	foodImageDisplay	3	128	8	foodImage.90	FOODEEG_Images\0890.jpg	YN	Left	Yes	0.953268400000525	0	518234	252
1014.236328125	0.953268400000525	taste	choicePhaseStart	3	128	8	foodImage.90	FOODEEG_Images\0890.jpg	YN	Left	Yes	0.953268400000525	0	519290	253
1015.1796875	0	taste	response	3	128	8	foodImage.90	FOODEEG_Images\0890.jpg	YN	Left	Yes	0.953268400000525	0	519773	234
1016.224609375	1	health	trialStart	3	129	9	foodImage.113	FOODEEG_Images\0921.jpg	YN	Left	Yes	1.08131890000004	0	520308	251
1017.275390625	2	health	foodImageDisplay	3	129	9	foodImage.113	FOODEEG_Images\0921.jpg	YN	Left	Yes	1.08131890000004	0	520846	252
1019.34375	1.08131890000004	health	choicePhaseStart	3	129	9	foodImage.113	FOODEEG_Images\0921.jpg	YN	Left	Yes	1.08131890000004	0	521905	253
1020.419921875	0	health	response	3	129	9	foodImage.113	FOODEEG_Images\0921.jpg	YN	Left	Yes	1.08131890000004	0	522456	234
1021.462890625	1	taste	trialStart	3	130	10	foodImage.14	FOODEEG_Images\0188.jpg	NY	Right	Yes	0.71954469999946	0	522990	251
1022.5234375	2	taste	foodImageDisplay	3	130	10	foodImage.14	FOODEEG_Images\0188.jpg	NY	Right	Yes	0.71954469999946	0	523533	252
1024.58984375	0.71954469999946	taste	choicePhaseStart	3	130	10	foodImage.14	FOODEEG_Images\0188.jpg	NY	Right	Yes	0.71954469999946	0	524591	253
1025.30078125	0	taste	response	3	130	10	foodImage.14	FOODEEG_Images\0188.jpg	NY	Right	Yes	0.71954469999946	0	524955	235
1026.34375	1	decision	trialStart	3	131	11	foodImage.83	FOODEEG_Images\0827.jpg	NY	Right	Yes	0.579908299999261	0	525489	251
1027.41015625	2	decision	foodImageDisplay	3	131	11	foodImage.83	FOODEEG_Images\0827.jpg	NY	Right	Yes	0.579908299999261	0	526035	252
1029.47265625	0.579908299999261	decision	choicePhaseStart	3	131	11	foodImage.83	FOODEEG_Images\0827.jpg	NY	Right	Yes	0.579908299999261	0	527091	253
1030.04296875	0	decision	response	3	131	11	foodImage.83	FOODEEG_Images\0827.jpg	NY	Right	Yes	0.579908299999261	0	527383	235
1031.087890625	1	decision	trialStart	3	132	12	foodImage.64	FOODEEG_Images\0647.jpg	YN	Left	Yes	0.617645999999695	0	527918	251
1032.1484375	2	decision	foodImageDisplay	3	132	12	foodImage.64	FOODEEG_Images\0647.jpg	YN	Left	Yes	0.617645999999695	0	528461	252
1034.2109375	0.617645999999695	decision	choicePhaseStart	3	132	12	foodImage.64	FOODEEG_Images\0647.jpg	YN	Left	Yes	0.617645999999695	0	529517	253
1034.8203125	0	decision	response	3	132	12	foodImage.64	FOODEEG_Images\0647.jpg	YN	Left	Yes	0.617645999999695	0	529829	234
1035.861328125	1	health	trialStart	3	133	13	foodImage.52	FOODEEG_Images\0539.jpg	YN	Left	Yes	0.614896699999917	0	530362	251
1036.919921875	2	health	foodImageDisplay	3	133	13	foodImage.52	FOODEEG_Images\0539.jpg	YN	Left	Yes	0.614896699999917	0	530904	252
1038.98828125	0.614896699999917	health	choicePhaseStart	3	133	13	foodImage.52	FOODEEG_Images\0539.jpg	YN	Left	Yes	0.614896699999917	0	531963	253
1039.595703125	0	health	response	3	133	13	foodImage.52	FOODEEG_Images\0539.jpg	YN	Left	Yes	0.614896699999917	0	532274	234
1040.638671875	1	decision	trialStart	3	134	14	foodImage.30	FOODEEG_Images\0282.jpg	NY	Right	Yes	0.6032395000002	0	532808	251
1041.6796875	2	decision	foodImageDisplay	3	134	14	foodImage.30	FOODEEG_Images\0282.jpg	NY	Right	Yes	0.6032395000002	0	533341	252
1043.744140625	0.6032395000002	decision	choicePhaseStart	3	134	14	foodImage.30	FOODEEG_Images\0282.jpg	NY	Right	Yes	0.6032395000002	0	534398	253
1044.33984375	0	decision	response	3	134	14	foodImage.30	FOODEEG_Images\0282.jpg	NY	Right	Yes	0.6032395000002	0	534703	235
1045.380859375	1	health	trialStart	3	135	15	foodImage.64	FOODEEG_Images\0647.jpg	NY	Right	Yes	0.914638499999455	0	535236	251
1046.439453125	2	health	foodImageDisplay	3	135	15	foodImage.64	FOODEEG_Images\0647.jpg	NY	Right	Yes	0.914638499999455	0	535778	252
1048.501953125	0.914638499999455	health	choicePhaseStart	3	135	15	foodImage.64	FOODEEG_Images\0647.jpg	NY	Right	Yes	0.914638499999455	0	536834	253
1049.41015625	0	health	response	3	135	15	foodImage.64	FOODEEG_Images\0647.jpg	NY	Right	Yes	0.914638499999455	0	537299	235
1050.455078125	1	taste	trialStart	3	136	16	foodImage.28	FOODEEG_Images\0273.jpg	YN	Left	Yes	0.875354300000254	0	537834	251
1051.49609375	2	taste	foodImageDisplay	3	136	16	foodImage.28	FOODEEG_Images\0273.jpg	YN	Left	Yes	0.875354300000254	0	538367	252
1053.560546875	0.875354300000254	taste	choicePhaseStart	3	136	16	foodImage.28	FOODEEG_Images\0273.jpg	YN	Left	Yes	0.875354300000254	0	539424	253
1054.427734375	0	taste	response	3	136	16	foodImage.28	FOODEEG_Images\0273.jpg	YN	Left	Yes	0.875354300000254	0	539868	234
1055.474609375	1	health	trialStart	3	137	17	foodImage.65	FOODEEG_Images\0658.jpg	YN	Right	No	1.98119880000013	0	540404	251
1056.515625	2	health	foodImageDisplay	3	137	17	foodImage.65	FOODEEG_Images\0658.jpg	YN	Right	No	1.98119880000013	0	540937	252
1058.583984375	1.98119880000013	health	choicePhaseStart	3	137	17	foodImage.65	FOODEEG_Images\0658.jpg	YN	Right	No	1.98119880000013	0	541996	253
1060.5546875	0	health	response	3	137	17	foodImage.65	FOODEEG_Images\0658.jpg	YN	Right	No	1.98119880000013	0	543005	235
1061.59765625	1	decision	trialStart	3	138	18	foodImage.71	FOODEEG_Images\0713.jpg	YN	Left	Yes	0.803026800000225	0	543539	251
1062.640625	2	decision	foodImageDisplay	3	138	18	foodImage.71	FOODEEG_Images\0713.jpg	YN	Left	Yes	0.803026800000225	0	544073	252
1064.705078125	0.803026800000225	decision	choicePhaseStart	3	138	18	foodImage.71	FOODEEG_Images\0713.jpg	YN	Left	Yes	0.803026800000225	0	545130	253
1065.498046875	0	decision	response	3	138	18	foodImage.71	FOODEEG_Images\0713.jpg	YN	Left	Yes	0.803026800000225	0	545536	234
1066.541015625	1	health	trialStart	3	139	19	foodImage.107	FOODEEG_Images\0915.jpg	YN	Right	No	1.63230879999992	0	546070	251
1067.580078125	2	health	foodImageDisplay	3	139	19	foodImage.107	FOODEEG_Images\0915.jpg	YN	Right	No	1.63230879999992	0	546602	252
1069.64453125	1.63230879999992	health	choicePhaseStart	3	139	19	foodImage.107	FOODEEG_Images\0915.jpg	YN	Right	No	1.63230879999992	0	547659	253
1071.265625	0	health	response	3	139	19	foodImage.107	FOODEEG_Images\0915.jpg	YN	Right	No	1.63230879999992	0	548489	235
1072.30859375	1	taste	trialStart	3	140	20	foodImage.76	FOODEEG_Images\0766.jpg	YN	Left	Yes	1.24935360000018	0	549023	251
1073.353515625	2	taste	foodImageDisplay	3	140	20	foodImage.76	FOODEEG_Images\0766.jpg	YN	Left	Yes	1.24935360000018	0	549558	252
1075.41796875	1.24935360000018	taste	choicePhaseStart	3	140	20	foodImage.76	FOODEEG_Images\0766.jpg	YN	Left	Yes	1.24935360000018	0	550615	253
1076.658203125	0	taste	response	3	140	20	foodImage.76	FOODEEG_Images\0766.jpg	YN	Left	Yes	1.24935360000018	0	551250	234
1077.708984375	1	health	trialStart	3	141	21	foodImage.99	FOODEEG_Images\0907.jpg	NY	Left	No	0.862001399999826	0	551788	251
1078.75	2	health	foodImageDisplay	3	141	21	foodImage.99	FOODEEG_Images\0907.jpg	NY	Left	No	0.862001399999826	0	552321	252
1080.8125	0.862001399999826	health	choicePhaseStart	3	141	21	foodImage.99	FOODEEG_Images\0907.jpg	NY	Left	No	0.862001399999826	0	553377	253
1081.666015625	0	health	response	3	141	21	foodImage.99	FOODEEG_Images\0907.jpg	NY	Left	No	0.862001399999826	0	553814	234
1082.70703125	1	taste	trialStart	3	142	22	foodImage.10	FOODEEG_Images\0145.jpg	YN	Left	Yes	0.915089800000715	0	554347	251
1083.767578125	2	taste	foodImageDisplay	3	142	22	foodImage.10	FOODEEG_Images\0145.jpg	YN	Left	Yes	0.915089800000715	0	554890	252
1085.83203125	0.915089800000715	taste	choicePhaseStart	3	142	22	foodImage.10	FOODEEG_Images\0145.jpg	YN	Left	Yes	0.915089800000715	0	555947	253
1086.73828125	0	taste	response	3	142	22	foodImage.10	FOODEEG_Images\0145.jpg	YN	Left	Yes	0.915089800000715	0	556411	234
1087.78125	1	decision	trialStart	3	143	23	foodImage.48	FOODEEG_Images\0494.jpg	NY	Right	Yes	0.841709199999968	0	556945	251
1088.841796875	2	decision	foodImageDisplay	3	143	23	foodImage.48	FOODEEG_Images\0494.jpg	NY	Right	Yes	0.841709199999968	0	557488	252
1090.90625	0.841709199999968	decision	choicePhaseStart	3	143	23	foodImage.48	FOODEEG_Images\0494.jpg	NY	Right	Yes	0.841709199999968	0	558545	253
1091.73828125	0	decision	response	3	143	23	foodImage.48	FOODEEG_Images\0494.jpg	NY	Right	Yes	0.841709199999968	0	558971	235
1092.779296875	1	decision	trialStart	3	144	24	foodImage.39	FOODEEG_Images\0367.jpg	NY	Right	Yes	0.919383200000084	0	559504	251
1093.8203125	2	decision	foodImageDisplay	3	144	24	foodImage.39	FOODEEG_Images\0367.jpg	NY	Right	Yes	0.919383200000084	0	560037	252
1095.8828125	0.919383200000084	decision	choicePhaseStart	3	144	24	foodImage.39	FOODEEG_Images\0367.jpg	NY	Right	Yes	0.919383200000084	0	561093	253
1096.79296875	0	decision	response	3	144	24	foodImage.39	FOODEEG_Images\0367.jpg	NY	Right	Yes	0.919383200000084	0	561559	235
1097.8359375	1	health	trialStart	3	145	25	foodImage.61	FOODEEG_Images\0640.jpg	NY	Right	Yes	0.682825599999887	0	562093	251
1098.880859375	2	health	foodImageDisplay	3	145	25	foodImage.61	FOODEEG_Images\0640.jpg	NY	Right	Yes	0.682825599999887	0	562628	252
1100.943359375	0.682825599999887	health	choicePhaseStart	3	145	25	foodImage.61	FOODEEG_Images\0640.jpg	NY	Right	Yes	0.682825599999887	0	563684	253
1101.6171875	0	health	response	3	145	25	foodImage.61	FOODEEG_Images\0640.jpg	NY	Right	Yes	0.682825599999887	0	564029	235
1102.66015625	1	health	trialStart	3	146	26	foodImage.63	FOODEEG_Images\0645.jpg	NY	Right	Yes	0.92418379999981	0	564563	251
1103.705078125	2	health	foodImageDisplay	3	146	26	foodImage.63	FOODEEG_Images\0645.jpg	NY	Right	Yes	0.92418379999981	0	565098	252
1105.7734375	0.92418379999981	health	choicePhaseStart	3	146	26	foodImage.63	FOODEEG_Images\0645.jpg	NY	Right	Yes	0.92418379999981	0	566157	253
1106.689453125	0	health	response	3	146	26	foodImage.63	FOODEEG_Images\0645.jpg	NY	Right	Yes	0.92418379999981	0	566626	235
1107.732421875	1	health	trialStart	3	147	27	foodImage.23	FOODEEG_Images\0244.jpg	NY	Left	No	2.0126625999992	0	567160	251
1108.775390625	2	health	foodImageDisplay	3	147	27	foodImage.23	FOODEEG_Images\0244.jpg	NY	Left	No	2.0126625999992	0	567694	252
1110.84375	2.0126625999992	health	choicePhaseStart	3	147	27	foodImage.23	FOODEEG_Images\0244.jpg	NY	Left	No	2.0126625999992	0	568753	253
1112.849609375	0	health	response	3	147	27	foodImage.23	FOODEEG_Images\0244.jpg	NY	Left	No	2.0126625999992	0	569780	234
1113.896484375	1	decision	trialStart	3	148	28	foodImage.5	FOODEEG_Images\0107.jpg	YN	Left	Yes	1.02410119999968	0	570316	251
1114.953125	2	decision	foodImageDisplay	3	148	28	foodImage.5	FOODEEG_Images\0107.jpg	YN	Left	Yes	1.02410119999968	0	570857	252
1117.017578125	1.02410119999968	decision	choicePhaseStart	3	148	28	foodImage.5	FOODEEG_Images\0107.jpg	YN	Left	Yes	1.02410119999968	0	571914	253
1118.033203125	0	decision	response	3	148	28	foodImage.5	FOODEEG_Images\0107.jpg	YN	Left	Yes	1.02410119999968	0	572434	234
1119.07421875	1	taste	trialStart	3	149	29	foodImage.23	FOODEEG_Images\0244.jpg	YN	Left	Yes	1.63414079999984	0	572967	251
1120.115234375	2	taste	foodImageDisplay	3	149	29	foodImage.23	FOODEEG_Images\0244.jpg	YN	Left	Yes	1.63414079999984	0	573500	252
1122.181640625	1.63414079999984	taste	choicePhaseStart	3	149	29	foodImage.23	FOODEEG_Images\0244.jpg	YN	Left	Yes	1.63414079999984	0	574558	253
1123.80859375	0	taste	response	3	149	29	foodImage.23	FOODEEG_Images\0244.jpg	YN	Left	Yes	1.63414079999984	0	575391	234
1124.8515625	1	health	trialStart	3	150	30	foodImage.97	FOODEEG_Images\0905.jpg	YN	Right	No	1.09467270000005	0	575925	251
1125.890625	2	health	foodImageDisplay	3	150	30	foodImage.97	FOODEEG_Images\0905.jpg	YN	Right	No	1.09467270000005	0	576457	252
1127.9609375	1.09467270000005	health	choicePhaseStart	3	150	30	foodImage.97	FOODEEG_Images\0905.jpg	YN	Right	No	1.09467270000005	0	577517	253
1129.048828125	0	health	response	3	150	30	foodImage.97	FOODEEG_Images\0905.jpg	YN	Right	No	1.09467270000005	0	578074	235
1130.091796875	1	health	trialStart	3	151	31	foodImage.96	FOODEEG_Images\0904.jpg	YN	Left	Yes	1.63612430000012	0	578608	251
1131.1328125	2	health	foodImageDisplay	3	151	31	foodImage.96	FOODEEG_Images\0904.jpg	YN	Left	Yes	1.63612430000012	0	579141	252
1133.1953125	1.63612430000012	health	choicePhaseStart	3	151	31	foodImage.96	FOODEEG_Images\0904.jpg	YN	Left	Yes	1.63612430000012	0	580197	253
1134.82421875	0	health	response	3	151	31	foodImage.96	FOODEEG_Images\0904.jpg	YN	Left	Yes	1.63612430000012	0	581031	234
1135.865234375	1	taste	trialStart	3	152	32	foodImage.45	FOODEEG_Images\0478.jpg	YN	Left	Yes	0.656445200000235	0	581564	251
1136.9140625	2	taste	foodImageDisplay	3	152	32	foodImage.45	FOODEEG_Images\0478.jpg	YN	Left	Yes	0.656445200000235	0	582101	252
1138.982421875	0.656445200000235	taste	choicePhaseStart	3	152	32	foodImage.45	FOODEEG_Images\0478.jpg	YN	Left	Yes	0.656445200000235	0	583160	253
1139.630859375	0	taste	response	3	152	32	foodImage.45	FOODEEG_Images\0478.jpg	YN	Left	Yes	0.656445200000235	0	583492	234
1140.677734375	1	decision	trialStart	3	153	33	foodImage.57	FOODEEG_Images\0587.jpg	YN	Left	Yes	0.584280999999464	0	584028	251
1141.720703125	2	decision	foodImageDisplay	3	153	33	foodImage.57	FOODEEG_Images\0587.jpg	YN	Left	Yes	0.584280999999464	0	584562	252
1143.783203125	0.584280999999464	decision	choicePhaseStart	3	153	33	foodImage.57	FOODEEG_Images\0587.jpg	YN	Left	Yes	0.584280999999464	0	585618	253
1144.359375	0	decision	response	3	153	33	foodImage.57	FOODEEG_Images\0587.jpg	YN	Left	Yes	0.584280999999464	0	585913	234
1145.400390625	1	taste	trialStart	3	154	34	foodImage.60	FOODEEG_Images\0614.jpg	YN	Left	Yes	0.70187309999983	0	586446	251
1146.482421875	2	taste	foodImageDisplay	3	154	34	foodImage.60	FOODEEG_Images\0614.jpg	YN	Left	Yes	0.70187309999983	0	587000	252
1148.546875	0.70187309999983	taste	choicePhaseStart	3	154	34	foodImage.60	FOODEEG_Images\0614.jpg	YN	Left	Yes	0.70187309999983	0	588057	253
1149.23828125	0	taste	response	3	154	34	foodImage.60	FOODEEG_Images\0614.jpg	YN	Left	Yes	0.70187309999983	0	588411	234
1150.28125	1	decision	trialStart	3	155	35	foodImage.11	FOODEEG_Images\0180.jpg	YN	Left	Yes	0.700402899999972	0	588945	251
1151.32421875	2	decision	foodImageDisplay	3	155	35	foodImage.11	FOODEEG_Images\0180.jpg	YN	Left	Yes	0.700402899999972	0	589479	252
1153.388671875	0.700402899999972	decision	choicePhaseStart	3	155	35	foodImage.11	FOODEEG_Images\0180.jpg	YN	Left	Yes	0.700402899999972	0	590536	253
1154.078125	0	decision	response	3	155	35	foodImage.11	FOODEEG_Images\0180.jpg	YN	Left	Yes	0.700402899999972	0	590889	234
1155.12109375	1	decision	trialStart	3	156	36	foodImage.1	FOODEEG_Images\0004.jpg	NY	Right	Yes	0.918560399999478	0	591423	251
1156.162109375	2	decision	foodImageDisplay	3	156	36	foodImage.1	FOODEEG_Images\0004.jpg	NY	Right	Yes	0.918560399999478	0	591956	252
1158.224609375	0.918560399999478	decision	choicePhaseStart	3	156	36	foodImage.1	FOODEEG_Images\0004.jpg	NY	Right	Yes	0.918560399999478	0	593012	253
1159.134765625	0	decision	response	3	156	36	foodImage.1	FOODEEG_Images\0004.jpg	NY	Right	Yes	0.918560399999478	0	593478	235
1160.177734375	1	health	trialStart	3	157	37	foodImage.3	FOODEEG_Images\0046.jpg	NY	Left	No	0.779357899999923	0	594012	251
1161.21875	2	health	foodImageDisplay	3	157	37	foodImage.3	FOODEEG_Images\0046.jpg	NY	Left	No	0.779357899999923	0	594545	252
1163.283203125	0.779357899999923	health	choicePhaseStart	3	157	37	foodImage.3	FOODEEG_Images\0046.jpg	NY	Left	No	0.779357899999923	0	595602	253
1164.0546875	0	health	response	3	157	37	foodImage.3	FOODEEG_Images\0046.jpg	NY	Left	No	0.779357899999923	0	595997	234
1165.103515625	1	decision	trialStart	3	158	38	foodImage.26	FOODEEG_Images\0262.jpg	NY	Right	Yes	0.61715649999951	0	596534	251
1166.15234375	2	decision	foodImageDisplay	3	158	38	foodImage.26	FOODEEG_Images\0262.jpg	NY	Right	Yes	0.61715649999951	0	597071	252
1168.220703125	0.61715649999951	decision	choicePhaseStart	3	158	38	foodImage.26	FOODEEG_Images\0262.jpg	NY	Right	Yes	0.61715649999951	0	598130	253
1168.830078125	0	decision	response	3	158	38	foodImage.26	FOODEEG_Images\0262.jpg	NY	Right	Yes	0.61715649999951	0	598442	235
1169.873046875	1	taste	trialStart	3	159	39	foodImage.101	FOODEEG_Images\0909.jpg	YN	Right	No	0.790045400000054	0	598976	251
1170.919921875	2	taste	foodImageDisplay	3	159	39	foodImage.101	FOODEEG_Images\0909.jpg	YN	Right	No	0.790045400000054	0	599512	252
1172.984375	0.790045400000054	taste	choicePhaseStart	3	159	39	foodImage.101	FOODEEG_Images\0909.jpg	YN	Right	No	0.790045400000054	0	600569	253
1173.765625	0	taste	response	3	159	39	foodImage.101	FOODEEG_Images\0909.jpg	YN	Right	No	0.790045400000054	0	600969	235
1174.80859375	1	health	trialStart	3	160	40	foodImage.91	FOODEEG_Images\0896.jpg	YN	Left	Yes	0.954192700000021	0	601503	251
1175.8671875	2	health	foodImageDisplay	3	160	40	foodImage.91	FOODEEG_Images\0896.jpg	YN	Left	Yes	0.954192700000021	0	602045	252
1177.93359375	0.954192700000021	health	choicePhaseStart	3	160	40	foodImage.91	FOODEEG_Images\0896.jpg	YN	Left	Yes	0.954192700000021	0	603103	253
1178.87890625	0	health	response	3	160	40	foodImage.91	FOODEEG_Images\0896.jpg	YN	Left	Yes	0.954192700000021	0	603587	234
1179.921875	1	taste	trialStart	3	161	41	foodImage.112	FOODEEG_Images\0920.jpg	YN	Right	No	0.779089300000123	0	604121	251
1180.9609375	2	taste	foodImageDisplay	3	161	41	foodImage.112	FOODEEG_Images\0920.jpg	YN	Right	No	0.779089300000123	0	604653	252
1183.02734375	0.779089300000123	taste	choicePhaseStart	3	161	41	foodImage.112	FOODEEG_Images\0920.jpg	YN	Right	No	0.779089300000123	0	605711	253
1183.798828125	0	taste	response	3	161	41	foodImage.112	FOODEEG_Images\0920.jpg	YN	Right	No	0.779089300000123	0	606106	235
1184.841796875	1	decision	trialStart	3	162	42	foodImage.81	FOODEEG_Images\0797.jpg	YN	Left	Yes	1.25464250000005	0	606640	251
1185.900390625	2	decision	foodImageDisplay	3	162	42	foodImage.81	FOODEEG_Images\0797.jpg	YN	Left	Yes	1.25464250000005	0	607182	252
1187.966796875	1.25464250000005	decision	choicePhaseStart	3	162	42	foodImage.81	FOODEEG_Images\0797.jpg	YN	Left	Yes	1.25464250000005	0	608240	253
1189.212890625	0	decision	response	3	162	42	foodImage.81	FOODEEG_Images\0797.jpg	YN	Left	Yes	1.25464250000005	0	608878	234
1190.255859375	1	taste	trialStart	3	163	43	foodImage.94	FOODEEG_Images\0902.jpg	NY	Right	Yes	0.760128099999747	0	609412	251
1191.294921875	2	taste	foodImageDisplay	3	163	43	foodImage.94	FOODEEG_Images\0902.jpg	NY	Right	Yes	0.760128099999747	0	609944	252
1193.357421875	0.760128099999747	taste	choicePhaseStart	3	163	43	foodImage.94	FOODEEG_Images\0902.jpg	NY	Right	Yes	0.760128099999747	0	611000	253
1194.109375	0	taste	response	3	163	43	foodImage.94	FOODEEG_Images\0902.jpg	NY	Right	Yes	0.760128099999747	0	611385	235
1195.150390625	1	health	trialStart	3	164	44	foodImage.118	FOODEEG_Images\0926.jpg	NY	Left	No	1.28774619999967	0	611918	251
1196.19140625	2	health	foodImageDisplay	3	164	44	foodImage.118	FOODEEG_Images\0926.jpg	NY	Left	No	1.28774619999967	0	612451	252
1198.259765625	1.28774619999967	health	choicePhaseStart	3	164	44	foodImage.118	FOODEEG_Images\0926.jpg	NY	Left	No	1.28774619999967	0	613510	253
1199.541015625	0	health	response	3	164	44	foodImage.118	FOODEEG_Images\0926.jpg	NY	Left	No	1.28774619999967	0	614166	234
1200.5859375	1	decision	trialStart	3	165	45	foodImage.18	FOODEEG_Images\0202.jpg	YN	Left	Yes	1.03864149999936	0	614701	251
1201.6484375	2	decision	foodImageDisplay	3	165	45	foodImage.18	FOODEEG_Images\0202.jpg	YN	Left	Yes	1.03864149999936	0	615245	252
1203.7109375	1.03864149999936	decision	choicePhaseStart	3	165	45	foodImage.18	FOODEEG_Images\0202.jpg	YN	Left	Yes	1.03864149999936	0	616301	253
1204.740234375	0	decision	response	3	165	45	foodImage.18	FOODEEG_Images\0202.jpg	YN	Left	Yes	1.03864149999936	0	616828	234
1205.783203125	1	decision	trialStart	3	166	46	foodImage.37	FOODEEG_Images\0359.jpg	NY	Right	Yes	0.769756400000006	0	617362	251
1206.82421875	2	decision	foodImageDisplay	3	166	46	foodImage.37	FOODEEG_Images\0359.jpg	NY	Right	Yes	0.769756400000006	0	617895	252
1208.892578125	0.769756400000006	decision	choicePhaseStart	3	166	46	foodImage.37	FOODEEG_Images\0359.jpg	NY	Right	Yes	0.769756400000006	0	618954	253
1209.65234375	0	decision	response	3	166	46	foodImage.37	FOODEEG_Images\0359.jpg	NY	Right	Yes	0.769756400000006	0	619343	235
1210.6953125	1	taste	trialStart	3	167	47	foodImage.108	FOODEEG_Images\0916.jpg	YN	Right	No	0.69547539999985	0	619877	251
1211.734375	2	taste	foodImageDisplay	3	167	47	foodImage.108	FOODEEG_Images\0916.jpg	YN	Right	No	0.69547539999985	0	620409	252
1213.798828125	0.69547539999985	taste	choicePhaseStart	3	167	47	foodImage.108	FOODEEG_Images\0916.jpg	YN	Right	No	0.69547539999985	0	621466	253
1214.484375	0	taste	response	3	167	47	foodImage.108	FOODEEG_Images\0916.jpg	YN	Right	No	0.69547539999985	0	621817	235
1215.52734375	1	health	trialStart	3	168	48	foodImage.51	FOODEEG_Images\0536.jpg	NY	Left	No	0.921807900000204	0	622351	251
1216.580078125	2	health	foodImageDisplay	3	168	48	foodImage.51	FOODEEG_Images\0536.jpg	NY	Left	No	0.921807900000204	0	622890	252
1218.64453125	0.921807900000204	health	choicePhaseStart	3	168	48	foodImage.51	FOODEEG_Images\0536.jpg	NY	Left	No	0.921807900000204	0	623947	253
1219.556640625	0	health	response	3	168	48	foodImage.51	FOODEEG_Images\0536.jpg	NY	Left	No	0.921807900000204	0	624414	234
1220.599609375	1	health	trialStart	3	169	49	foodImage.83	FOODEEG_Images\0827.jpg	YN	Left	Yes	0.727238500000567	0	624948	251
1221.65625	2	health	foodImageDisplay	3	169	49	foodImage.83	FOODEEG_Images\0827.jpg	YN	Left	Yes	0.727238500000567	0	625489	252
1223.71875	0.727238500000567	health	choicePhaseStart	3	169	49	foodImage.83	FOODEEG_Images\0827.jpg	YN	Left	Yes	0.727238500000567	0	626545	253
1224.435546875	0	health	response	3	169	49	foodImage.83	FOODEEG_Images\0827.jpg	YN	Left	Yes	0.727238500000567	0	626912	234
1225.478515625	1	taste	trialStart	3	170	50	foodImage.21	FOODEEG_Images\0234.jpg	NY	Right	Yes	0.56210319999991	0	627446	251
1226.541015625	2	taste	foodImageDisplay	3	170	50	foodImage.21	FOODEEG_Images\0234.jpg	NY	Right	Yes	0.56210319999991	0	627990	252
1228.603515625	0.56210319999991	taste	choicePhaseStart	3	170	50	foodImage.21	FOODEEG_Images\0234.jpg	NY	Right	Yes	0.56210319999991	0	629046	253
1229.15625	0	taste	response	3	170	50	foodImage.21	FOODEEG_Images\0234.jpg	NY	Right	Yes	0.56210319999991	0	629329	235
1230.19921875	1	health	trialStart	3	171	51	foodImage.37	FOODEEG_Images\0359.jpg	YN	Left	Yes	0.751333399999567	0	629863	251
1231.26171875	2	health	foodImageDisplay	3	171	51	foodImage.37	FOODEEG_Images\0359.jpg	YN	Left	Yes	0.751333399999567	0	630407	252
1233.326171875	0.751333399999567	health	choicePhaseStart	3	171	51	foodImage.37	FOODEEG_Images\0359.jpg	YN	Left	Yes	0.751333399999567	0	631464	253
1234.068359375	0	health	response	3	171	51	foodImage.37	FOODEEG_Images\0359.jpg	YN	Left	Yes	0.751333399999567	0	631844	234
1235.111328125	1	health	trialStart	3	172	52	foodImage.100	FOODEEG_Images\0908.jpg	YN	Right	No	0.956862000000001	0	632378	251
1236.1484375	2	health	foodImageDisplay	3	172	52	foodImage.100	FOODEEG_Images\0908.jpg	YN	Right	No	0.956862000000001	0	632909	252
1238.21484375	0.956862000000001	health	choicePhaseStart	3	172	52	foodImage.100	FOODEEG_Images\0908.jpg	YN	Right	No	0.956862000000001	0	633967	253
1239.1640625	0	health	response	3	172	52	foodImage.100	FOODEEG_Images\0908.jpg	YN	Right	No	0.956862000000001	0	634453	235
1240.208984375	1	taste	trialStart	3	173	53	foodImage.89	FOODEEG_Images\0881.jpg	NY	Right	Yes	0.718778699999348	0	634988	251
1241.263671875	2	taste	foodImageDisplay	3	173	53	foodImage.89	FOODEEG_Images\0881.jpg	NY	Right	Yes	0.718778699999348	0	635528	252
1243.333984375	0.718778699999348	taste	choicePhaseStart	3	173	53	foodImage.89	FOODEEG_Images\0881.jpg	NY	Right	Yes	0.718778699999348	0	636588	253
1244.04296875	0	taste	response	3	173	53	foodImage.89	FOODEEG_Images\0881.jpg	NY	Right	Yes	0.718778699999348	0	636951	235
1245.09375	1	decision	trialStart	3	174	54	foodImage.32	FOODEEG_Images\0319.jpg	NY	Right	Yes	0.545941700000185	0	637489	251
1246.138671875	2	decision	foodImageDisplay	3	174	54	foodImage.32	FOODEEG_Images\0319.jpg	NY	Right	Yes	0.545941700000185	0	638024	252
1248.201171875	0.545941700000185	decision	choicePhaseStart	3	174	54	foodImage.32	FOODEEG_Images\0319.jpg	NY	Right	Yes	0.545941700000185	0	639080	253
1248.740234375	0	decision	response	3	174	54	foodImage.32	FOODEEG_Images\0319.jpg	NY	Right	Yes	0.545941700000185	0	639356	235
1249.783203125	1	taste	trialStart	3	175	55	foodImage.40	FOODEEG_Images\0373.jpg	YN	Left	Yes	0.75892339999973	0	639890	251
1250.822265625	2	taste	foodImageDisplay	3	175	55	foodImage.40	FOODEEG_Images\0373.jpg	YN	Left	Yes	0.75892339999973	0	640422	252
1252.892578125	0.75892339999973	taste	choicePhaseStart	3	175	55	foodImage.40	FOODEEG_Images\0373.jpg	YN	Left	Yes	0.75892339999973	0	641482	253
1253.642578125	0	taste	response	3	175	55	foodImage.40	FOODEEG_Images\0373.jpg	YN	Left	Yes	0.75892339999973	0	641866	234
1254.6875	1	health	trialStart	3	176	56	foodImage.110	FOODEEG_Images\0918.jpg	NY	Left	No	0.642502599999716	0	642401	251
1255.736328125	2	health	foodImageDisplay	3	176	56	foodImage.110	FOODEEG_Images\0918.jpg	NY	Left	No	0.642502599999716	0	642938	252
1257.80078125	0.642502599999716	health	choicePhaseStart	3	176	56	foodImage.110	FOODEEG_Images\0918.jpg	NY	Left	No	0.642502599999716	0	643995	253
1258.435546875	0	health	response	3	176	56	foodImage.110	FOODEEG_Images\0918.jpg	NY	Left	No	0.642502599999716	0	644320	234
1259.478515625	1	health	trialStart	3	177	57	foodImage.93	FOODEEG_Images\0901.jpg	YN	Right	No	0.597875600000407	0	644854	251
1260.51953125	2	health	foodImageDisplay	3	177	57	foodImage.93	FOODEEG_Images\0901.jpg	YN	Right	No	0.597875600000407	0	645387	252
1262.58203125	0.597875600000407	health	choicePhaseStart	3	177	57	foodImage.93	FOODEEG_Images\0901.jpg	YN	Right	No	0.597875600000407	0	646443	253
1263.169921875	0	health	response	3	177	57	foodImage.93	FOODEEG_Images\0901.jpg	YN	Right	No	0.597875600000407	0	646744	235
1264.212890625	1	taste	trialStart	3	178	58	foodImage.59	FOODEEG_Images\0607.jpg	NY	Right	Yes	0.907350999999835	0	647278	251
1265.263671875	2	taste	foodImageDisplay	3	178	58	foodImage.59	FOODEEG_Images\0607.jpg	NY	Right	Yes	0.907350999999835	0	647816	252
1267.328125	0.907350999999835	taste	choicePhaseStart	3	178	58	foodImage.59	FOODEEG_Images\0607.jpg	NY	Right	Yes	0.907350999999835	0	648873	253
1268.2265625	0	taste	response	3	178	58	foodImage.59	FOODEEG_Images\0607.jpg	NY	Right	Yes	0.907350999999835	0	649333	235
1269.2734375	1	decision	trialStart	3	179	59	foodImage.34	FOODEEG_Images\0339.jpg	YN	Right	No	0.977624999999534	0	649869	251
1270.328125	2	decision	foodImageDisplay	3	179	59	foodImage.34	FOODEEG_Images\0339.jpg	YN	Right	No	0.977624999999534	0	650409	252
1272.392578125	0.977624999999534	decision	choicePhaseStart	3	179	59	foodImage.34	FOODEEG_Images\0339.jpg	YN	Right	No	0.977624999999534	0	651466	253
1273.36328125	0	decision	response	3	179	59	foodImage.34	FOODEEG_Images\0339.jpg	YN	Right	No	0.977624999999534	0	651963	235
1274.404296875	1	taste	trialStart	3	180	60	foodImage.118	FOODEEG_Images\0926.jpg	YN	Right	No	1.12071699999979	0	652496	251
1275.44921875	2	taste	foodImageDisplay	3	180	60	foodImage.118	FOODEEG_Images\0926.jpg	YN	Right	No	1.12071699999979	0	653031	252
1277.513671875	1.12071699999979	taste	choicePhaseStart	3	180	60	foodImage.118	FOODEEG_Images\0926.jpg	YN	Right	No	1.12071699999979	0	654088	253
1278.625	0	taste	response	3	180	60	foodImage.118	FOODEEG_Images\0926.jpg	YN	Right	No	1.12071699999979	0	654657	235
1280.66796875	39.7421875	n/a	blockEnd	n/a	n/a	n/a	n/a	n/a	n/a	n/a	n/a	n/a	n/a	655703	254
1320.41015625	2	n/a	blockStart	4	n/a	n/a	n/a	n/a	n/a	n/a	n/a	n/a	n/a	676051	250
1322.44140625	1	health	trialStart	4	181	1	foodImage.62	FOODEEG_Images\0644.jpg	NY	Right	Yes	0.582343399999445	0	677091	251
1323.501953125	2	health	foodImageDisplay	4	181	1	foodImage.62	FOODEEG_Images\0644.jpg	NY	Right	Yes	0.582343399999445	0	677634	252
1325.5703125	0.582343399999445	health	choicePhaseStart	4	181	1	foodImage.62	FOODEEG_Images\0644.jpg	NY	Right	Yes	0.582343399999445	0	678693	253
1326.14453125	0	health	response	4	181	1	foodImage.62	FOODEEG_Images\0644.jpg	NY	Right	Yes	0.582343399999445	0	678987	235
1327.1875	1	decision	trialStart	4	182	2	foodImage.46	FOODEEG_Images\0479.jpg	YN	Left	Yes	0.552507000000332	0	679521	251
1328.2421875	2	decision	foodImageDisplay	4	182	2	foodImage.46	FOODEEG_Images\0479.jpg	YN	Left	Yes	0.552507000000332	0	680061	252
1330.3046875	0.552507000000332	decision	choicePhaseStart	4	182	2	foodImage.46	FOODEEG_Images\0479.jpg	YN	Left	Yes	0.552507000000332	0	681117	253
1330.84765625	0	decision	response	4	182	2	foodImage.46	FOODEEG_Images\0479.jpg	YN	Left	Yes	0.552507000000332	0	681395	234
1331.890625	1	decision	trialStart	4	183	3	foodImage.56	FOODEEG_Images\0586.jpg	NY	Right	Yes	0.509493700000348	0	681929	251
1332.93359375	2	decision	foodImageDisplay	4	183	3	foodImage.56	FOODEEG_Images\0586.jpg	NY	Right	Yes	0.509493700000348	0	682463	252
1335.001953125	0.509493700000348	decision	choicePhaseStart	4	183	3	foodImage.56	FOODEEG_Images\0586.jpg	NY	Right	Yes	0.509493700000348	0	683522	253
1335.50390625	0	decision	response	4	183	3	foodImage.56	FOODEEG_Images\0586.jpg	NY	Right	Yes	0.509493700000348	0	683779	235
1336.546875	1	taste	trialStart	4	184	4	foodImage.9	FOODEEG_Images\0138.jpg	NY	Left	No	0.603226100000029	0	684313	251
1337.60546875	2	taste	foodImageDisplay	4	184	4	foodImage.9	FOODEEG_Images\0138.jpg	NY	Left	No	0.603226100000029	0	684855	252
1339.669921875	0.603226100000029	taste	choicePhaseStart	4	184	4	foodImage.9	FOODEEG_Images\0138.jpg	NY	Left	No	0.603226100000029	0	685912	253
1340.263671875	0	taste	response	4	184	4	foodImage.9	FOODEEG_Images\0138.jpg	NY	Left	No	0.603226100000029	0	686216	234
1341.306640625	1	health	trialStart	4	185	5	foodImage.43	FOODEEG_Images\0445.jpg	NY	Right	Yes	0.88881610000044	0	686750	251
1342.390625	2	health	foodImageDisplay	4	185	5	foodImage.43	FOODEEG_Images\0445.jpg	NY	Right	Yes	0.88881610000044	0	687305	252
1344.455078125	0.88881610000044	health	choicePhaseStart	4	185	5	foodImage.43	FOODEEG_Images\0445.jpg	NY	Right	Yes	0.88881610000044	0	688362	253
1345.3359375	0	health	response	4	185	5	foodImage.43	FOODEEG_Images\0445.jpg	NY	Right	Yes	0.88881610000044	0	688813	235
1346.376953125	1	health	trialStart	4	186	6	foodImage.2	FOODEEG_Images\0028.jpg	YN	Right	No	0.645310599999902	0	689346	251
1347.41796875	2	health	foodImageDisplay	4	186	6	foodImage.2	FOODEEG_Images\0028.jpg	YN	Right	No	0.645310599999902	0	689879	252
1349.482421875	0.645310599999902	health	choicePhaseStart	4	186	6	foodImage.2	FOODEEG_Images\0028.jpg	YN	Right	No	0.645310599999902	0	690936	253
1350.119140625	0	health	response	4	186	6	foodImage.2	FOODEEG_Images\0028.jpg	YN	Right	No	0.645310599999902	0	691262	235
1351.162109375	1	taste	trialStart	4	187	7	foodImage.34	FOODEEG_Images\0339.jpg	YN	Right	No	0.692262200000187	0	691796	251
1352.244140625	2	taste	foodImageDisplay	4	187	7	foodImage.34	FOODEEG_Images\0339.jpg	YN	Right	No	0.692262200000187	0	692350	252
1354.30859375	0.692262200000187	taste	choicePhaseStart	4	187	7	foodImage.34	FOODEEG_Images\0339.jpg	YN	Right	No	0.692262200000187	0	693407	253
1354.9921875	0	taste	response	4	187	7	foodImage.34	FOODEEG_Images\0339.jpg	YN	Right	No	0.692262200000187	0	693757	235
1356.03515625	1	taste	trialStart	4	188	8	foodImage.105	FOODEEG_Images\0913.jpg	NY	Left	No	0.818802800000412	0	694291	251
1357.0859375	2	taste	foodImageDisplay	4	188	8	foodImage.105	FOODEEG_Images\0913.jpg	NY	Left	No	0.818802800000412	0	694829	252
1359.1484375	0.818802800000412	taste	choicePhaseStart	4	188	8	foodImage.105	FOODEEG_Images\0913.jpg	NY	Left	No	0.818802800000412	0	695885	253
1359.958984375	0	taste	response	4	188	8	foodImage.105	FOODEEG_Images\0913.jpg	NY	Left	No	0.818802800000412	0	696300	234
1361.00390625	1	health	trialStart	4	189	9	foodImage.27	FOODEEG_Images\0263.jpg	YN	Left	Yes	1.12820209999973	0	696835	251
1362.048828125	2	health	foodImageDisplay	4	189	9	foodImage.27	FOODEEG_Images\0263.jpg	YN	Left	Yes	1.12820209999973	0	697370	252
1364.111328125	1.12820209999973	health	choicePhaseStart	4	189	9	foodImage.27	FOODEEG_Images\0263.jpg	YN	Left	Yes	1.12820209999973	0	698426	253
1365.23046875	0	health	response	4	189	9	foodImage.27	FOODEEG_Images\0263.jpg	YN	Left	Yes	1.12820209999973	0	698999	234
1366.2734375	1	health	trialStart	4	190	10	foodImage.17	FOODEEG_Images\0199.jpg	NY	Right	Yes	1.42254020000018	0	699533	251
1367.333984375	2	health	foodImageDisplay	4	190	10	foodImage.17	FOODEEG_Images\0199.jpg	NY	Right	Yes	1.42254020000018	0	700076	252
1369.3984375	1.42254020000018	health	choicePhaseStart	4	190	10	foodImage.17	FOODEEG_Images\0199.jpg	NY	Right	Yes	1.42254020000018	0	701133	253
1370.814453125	0	health	response	4	190	10	foodImage.17	FOODEEG_Images\0199.jpg	NY	Right	Yes	1.42254020000018	0	701858	235
1371.85546875	1	decision	trialStart	4	191	11	foodImage.96	FOODEEG_Images\0904.jpg	NY	Left	No	0.960273499999857	0	702391	251
1372.89453125	2	decision	foodImageDisplay	4	191	11	foodImage.96	FOODEEG_Images\0904.jpg	NY	Left	No	0.960273499999857	0	702923	252
1374.958984375	0.960273499999857	decision	choicePhaseStart	4	191	11	foodImage.96	FOODEEG_Images\0904.jpg	NY	Left	No	0.960273499999857	0	703980	253
1375.91015625	0	decision	response	4	191	11	foodImage.96	FOODEEG_Images\0904.jpg	NY	Left	No	0.960273499999857	0	704467	234
1376.958984375	1	taste	trialStart	4	192	12	foodImage.81	FOODEEG_Images\0797.jpg	YN	Left	Yes	0.605743399999483	0	705004	251
1378.041015625	2	taste	foodImageDisplay	4	192	12	foodImage.81	FOODEEG_Images\0797.jpg	YN	Left	Yes	0.605743399999483	0	705558	252
1380.10546875	0.605743399999483	taste	choicePhaseStart	4	192	12	foodImage.81	FOODEEG_Images\0797.jpg	YN	Left	Yes	0.605743399999483	0	706615	253
1380.703125	0	taste	response	4	192	12	foodImage.81	FOODEEG_Images\0797.jpg	YN	Left	Yes	0.605743399999483	0	706921	234
