onset	duration	trial_type	event_type	block	trial_total	trial_in_block	food_image_code	food_image_path	button_position	resp_position	resp_choice	choice_rt	resp_too_slow	sample	trigger
306.849609375	2	n/a	blockStart	1	n/a	n/a	n/a	n/a	n/a	n/a	n/a	n/a	n/a	157108	250
308.88671875	1	health	trialStart	1	1	1	foodImage.67	FOODEEG_Images\0679.jpg	NY	Right	Yes	1.23995889999969	0	158151	251
309.951171875	2	health	foodImageDisplay	1	1	1	foodImage.67	FOODEEG_Images\0679.jpg	NY	Right	Yes	1.23995889999969	0	158696	252
312.015625	1.23995889999969	health	choicePhaseStart	1	1	1	foodImage.67	FOODEEG_Images\0679.jpg	NY	Right	Yes	1.23995889999969	0	159753	253
313.25	0	health	response	1	1	1	foodImage.67	FOODEEG_Images\0679.jpg	NY	Right	Yes	1.23995889999969	0	160385	235
314.359375	1	decision	trialStart	1	2	2	foodImage.53	FOODEEG_Images\0547.jpg	NY	Left	No	1.14323759999934	0	160953	251
315.416015625	2	decision	foodImageDisplay	1	2	2	foodImage.53	FOODEEG_Images\0547.jpg	NY	Left	No	1.14323759999934	0	161494	252
317.486328125	1.14323759999934	decision	choicePhaseStart	1	2	2	foodImage.53	FOODEEG_Images\0547.jpg	NY	Left	No	1.14323759999934	0	162554	253
318.625	0	decision	response	1	2	2	foodImage.53	FOODEEG_Images\0547.jpg	NY	Left	No	1.14323759999934	0	163137	234
319.6796875	1	health	trialStart	1	3	3	foodImage.34	FOODEEG_Images\0339.jpg	NY	Left	No	0.700717599998825	0	163677	251
320.740234375	2	health	foodImageDisplay	1	3	3	foodImage.34	FOODEEG_Images\0339.jpg	NY	Left	No	0.700717599998825	0	164220	252
322.8046875	0.700717599998825	health	choicePhaseStart	1	3	3	foodImage.34	FOODEEG_Images\0339.jpg	NY	Left	No	0.700717599998825	0	165277	253
323.49609375	0	health	response	1	3	3	foodImage.34	FOODEEG_Images\0339.jpg	NY	Left	No	0.700717599998825	0	165631	234
324.544921875	1	taste	trialStart	1	4	4	foodImage.53	FOODEEG_Images\0547.jpg	NY	Left	No	0.890815299999304	0	166168	251
325.603515625	2	taste	foodImageDisplay	1	4	4	foodImage.53	FOODEEG_Images\0547.jpg	NY	Left	No	0.890815299999304	0	166710	252
327.669921875	0.890815299999304	taste	choicePhaseStart	1	4	4	foodImage.53	FOODEEG_Images\0547.jpg	NY	Left	No	0.890815299999304	0	167768	253
328.552734375	0	taste	response	1	4	4	foodImage.53	FOODEEG_Images\0547.jpg	NY	Left	No	0.890815299999304	0	168220	234
329.599609375	1	taste	trialStart	1	5	5	foodImage.56	FOODEEG_Images\0586.jpg	NY	Right	Yes	1.06907420000061	0	168756	251
330.6484375	2	taste	foodImageDisplay	1	5	5	foodImage.56	FOODEEG_Images\0586.jpg	NY	Right	Yes	1.06907420000061	0	169293	252
332.712890625	1.06907420000061	taste	choicePhaseStart	1	5	5	foodImage.56	FOODEEG_Images\0586.jpg	NY	Right	Yes	1.06907420000061	0	170350	253
333.775390625	0	taste	response	1	5	5	foodImage.56	FOODEEG_Images\0586.jpg	NY	Right	Yes	1.06907420000061	0	170894	235
334.828125	1	health	trialStart	1	6	6	foodImage.78	FOODEEG_Images\0787.jpg	YN	Left	Yes	0.845159099999364	0	171433	251
335.890625	2	health	foodImageDisplay	1	6	6	foodImage.78	FOODEEG_Images\0787.jpg	YN	Left	Yes	0.845159099999364	0	171977	252
337.955078125	0.845159099999364	health	choicePhaseStart	1	6	6	foodImage.78	FOODEEG_Images\0787.jpg	YN	Left	Yes	0.845159099999364	0	173034	253
338.791015625	0	health	response	1	6	6	foodImage.78	FOODEEG_Images\0787.jpg	YN	Left	Yes	0.845159099999364	0	173462	234
339.833984375	1	taste	trialStart	1	7	7	foodImage.2	FOODEEG_Images\0028.jpg	YN	Right	No	1.27569530000073	0	173996	251
340.876953125	2	taste	foodImageDisplay	1	7	7	foodImage.2	FOODEEG_Images\0028.jpg	YN	Right	No	1.27569530000073	0	174530	252
342.939453125	1.27569530000073	taste	choicePhaseStart	1	7	7	foodImage.2	FOODEEG_Images\0028.jpg	YN	Right	No	1.27569530000073	0	175586	253
344.20703125	0	taste	response	1	7	7	foodImage.2	FOODEEG_Images\0028.jpg	YN	Right	No	1.27569530000073	0	176235	235
345.251953125	1	decision	trialStart	1	8	8	foodImage.17	FOODEEG_Images\0199.jpg	YN	Left	Yes	0.665409799999907	0	176770	251
346.29296875	2	decision	foodImageDisplay	1	8	8	foodImage.17	FOODEEG_Images\0199.jpg	YN	Left	Yes	0.665409799999907	0	177303	252
348.357421875	0.665409799999907	decision	choicePhaseStart	1	8	8	foodImage.17	FOODEEG_Images\0199.jpg	YN	Left	Yes	0.665409799999907	0	178360	253
349.015625	0	decision	response	1	8	8	foodImage.17	FOODEEG_Images\0199.jpg	YN	Left	Yes	0.665409799999907	0	178697	234
350.05859375	1	taste	trialStart	1	9	9	foodImage.90	FOODEEG_Images\0890.jpg	YN	Left	Yes	0.935751600000003	0	179231	251
351.12109375	2	taste	foodImageDisplay	1	9	9	foodImage.90	FOODEEG_Images\0890.jpg	YN	Left	Yes	0.935751600000003	0	179775	252
353.18359375	0.935751600000003	taste	choicePhaseStart	1	9	9	foodImage.90	FOODEEG_Images\0890.jpg	YN	Left	Yes	0.935751600000003	0	180831	253
354.111328125	0	taste	response	1	9	9	foodImage.90	FOODEEG_Images\0890.jpg	YN	Left	Yes	0.935751600000003	0	181306	234
355.15625	1	decision	trialStart	1	10	10	foodImage.54	FOODEEG_Images\0560.jpg	NY	Right	Yes	1.19874859999982	0	181841	251
356.232421875	2	decision	foodImageDisplay	1	10	10	foodImage.54	FOODEEG_Images\0560.jpg	NY	Right	Yes	1.19874859999982	0	182392	252
358.296875	1.19874859999982	decision	choicePhaseStart	1	10	10	foodImage.54	FOODEEG_Images\0560.jpg	NY	Right	Yes	1.19874859999982	0	183449	253
359.486328125	0	decision	response	1	10	10	foodImage.54	FOODEEG_Images\0560.jpg	NY	Right	Yes	1.19874859999982	0	184058	235
360.53515625	1	health	trialStart	1	11	11	foodImage.65	FOODEEG_Images\0658.jpg	NY	Left	No	0.892300200001046	0	184595	251
361.580078125	2	health	foodImageDisplay	1	11	11	foodImage.65	FOODEEG_Images\0658.jpg	NY	Left	No	0.892300200001046	0	185130	252
363.642578125	0.892300200001046	health	choicePhaseStart	1	11	11	foodImage.65	FOODEEG_Images\0658.jpg	NY	Left	No	0.892300200001046	0	186186	253
364.525390625	0	health	response	1	11	11	foodImage.65	FOODEEG_Images\0658.jpg	NY	Left	No	0.892300200001046	0	186638	234
365.576171875	1	health	trialStart	1	12	12	foodImage.109	FOODEEG_Images\0917.jpg	NY	Left	No	1.78059639999992	0	187176	251
366.6171875	2	health	foodImageDisplay	1	12	12	foodImage.109	FOODEEG_Images\0917.jpg	NY	Left	No	1.78059639999992	0	187709	252
368.681640625	1.78059639999992	health	choicePhaseStart	1	12	12	foodImage.109	FOODEEG_Images\0917.jpg	NY	Left	No	1.78059639999992	0	188766	253
370.455078125	0	health	response	1	12	12	foodImage.109	FOODEEG_Images\0917.jpg	NY	Left	No	1.78059639999992	0	189674	234
371.501953125	1	taste	trialStart	1	13	13	foodImage.70	FOODEEG_Images\0705.jpg	NY	Right	Yes	0.864885499999218	0	190210	251
372.560546875	2	taste	foodImageDisplay	1	13	13	foodImage.70	FOODEEG_Images\0705.jpg	NY	Right	Yes	0.864885499999218	0	190752	252
374.634765625	0.864885499999218	taste	choicePhaseStart	1	13	13	foodImage.70	FOODEEG_Images\0705.jpg	NY	Right	Yes	0.864885499999218	0	191814	253
375.494140625	0	taste	response	1	13	13	foodImage.70	FOODEEG_Images\0705.jpg	NY	Right	Yes	0.864885499999218	0	192254	235
376.5625	1	decision	trialStart	1	14	14	foodImage.46	FOODEEG_Images\0479.jpg	NY	Right	Yes	0.903084599998692	0	192801	251
377.619140625	2	decision	foodImageDisplay	1	14	14	foodImage.46	FOODEEG_Images\0479.jpg	NY	Right	Yes	0.903084599998692	0	193342	252
379.6875	0.903084599998692	decision	choicePhaseStart	1	14	14	foodImage.46	FOODEEG_Images\0479.jpg	NY	Right	Yes	0.903084599998692	0	194401	253
380.58203125	0	decision	response	1	14	14	foodImage.46	FOODEEG_Images\0479.jpg	NY	Right	Yes	0.903084599998692	0	194859	235
381.625	1	health	trialStart	1	15	15	foodImage.73	FOODEEG_Images\0717.jpg	NY	Right	Yes	1.12776940000003	0	195393	251
382.685546875	2	health	foodImageDisplay	1	15	15	foodImage.73	FOODEEG_Images\0717.jpg	NY	Right	Yes	1.12776940000003	0	195936	252
384.751953125	1.12776940000003	health	choicePhaseStart	1	15	15	foodImage.73	FOODEEG_Images\0717.jpg	NY	Right	Yes	1.12776940000003	0	196994	253
385.869140625	0	health	response	1	15	15	foodImage.73	FOODEEG_Images\0717.jpg	NY	Right	Yes	1.12776940000003	0	197566	235
386.912109375	1	decision	trialStart	1	16	16	foodImage.79	FOODEEG_Images\0794.jpg	NY	Right	Yes	0.929373099999793	0	198100	251
387.955078125	2	decision	foodImageDisplay	1	16	16	foodImage.79	FOODEEG_Images\0794.jpg	NY	Right	Yes	0.929373099999793	0	198634	252
390.01953125	0.929373099999793	decision	choicePhaseStart	1	16	16	foodImage.79	FOODEEG_Images\0794.jpg	NY	Right	Yes	0.929373099999793	0	199691	253
390.94140625	0	decision	response	1	16	16	foodImage.79	FOODEEG_Images\0794.jpg	NY	Right	Yes	0.929373099999793	0	200163	235
391.984375	1	decision	trialStart	1	17	17	foodImage.38	FOODEEG_Images\0365.jpg	NY	Right	Yes	1.01125630000024	0	200697	251
393.02734375	2	decision	foodImageDisplay	1	17	17	foodImage.38	FOODEEG_Images\0365.jpg	NY	Right	Yes	1.01125630000024	0	201231	252
395.091796875	1.01125630000024	decision	choicePhaseStart	1	17	17	foodImage.38	FOODEEG_Images\0365.jpg	NY	Right	Yes	1.01125630000024	0	202288	253
396.09375	0	decision	response	1	17	17	foodImage.38	FOODEEG_Images\0365.jpg	NY	Right	Yes	1.01125630000024	0	202801	235
397.13671875	1	taste	trialStart	1	18	18	foodImage.107	FOODEEG_Images\0915.jpg	YN	Right	No	1.43585710000116	0	203335	251
398.17578125	2	taste	foodImageDisplay	1	18	18	foodImage.107	FOODEEG_Images\0915.jpg	YN	Right	No	1.43585710000116	0	203867	252
400.240234375	1.43585710000116	taste	choicePhaseStart	1	18	18	foodImage.107	FOODEEG_Images\0915.jpg	YN	Right	No	1.43585710000116	0	204924	253
401.66796875	0	taste	response	1	18	18	foodImage.107	FOODEEG_Images\0915.jpg	YN	Right	No	1.43585710000116	0	205655	235
402.716796875	1	health	trialStart	1	19	19	foodImage.64	FOODEEG_Images\0647.jpg	YN	Left	Yes	0.70902340000066	0	206192	251
403.77734375	2	health	foodImageDisplay	1	19	19	foodImage.64	FOODEEG_Images\0647.jpg	YN	Left	Yes	0.70902340000066	0	206735	252
405.845703125	0.70902340000066	health	choicePhaseStart	1	19	19	foodImage.64	FOODEEG_Images\0647.jpg	YN	Left	Yes	0.70902340000066	0	207794	253
406.548828125	0	health	response	1	19	19	foodImage.64	FOODEEG_Images\0647.jpg	YN	Left	Yes	0.70902340000066	0	208154	234
407.591796875	1	taste	trialStart	1	20	20	foodImage.41	FOODEEG_Images\0409.jpg	YN	Right	No	1.23385029999918	0	208688	251
408.640625	2	taste	foodImageDisplay	1	20	20	foodImage.41	FOODEEG_Images\0409.jpg	YN	Right	No	1.23385029999918	0	209225	252
410.70703125	1.23385029999918	taste	choicePhaseStart	1	20	20	foodImage.41	FOODEEG_Images\0409.jpg	YN	Right	No	1.23385029999918	0	210283	253
411.931640625	0	taste	response	1	20	20	foodImage.41	FOODEEG_Images\0409.jpg	YN	Right	No	1.23385029999918	0	210910	235
412.974609375	1	health	trialStart	1	21	21	foodImage.111	FOODEEG_Images\0919.jpg	NY	Right	Yes	1.36506520000148	0	211444	251
414.015625	2	health	foodImageDisplay	1	21	21	foodImage.111	FOODEEG_Images\0919.jpg	NY	Right	Yes	1.36506520000148	0	211977	252
416.080078125	1.36506520000148	health	choicePhaseStart	1	21	21	foodImage.111	FOODEEG_Images\0919.jpg	NY	Right	Yes	1.36506520000148	0	213034	253
417.435546875	0	health	response	1	21	21	foodImage.111	FOODEEG_Images\0919.jpg	NY	Right	Yes	1.36506520000148	0	213728	235
418.478515625	1	decision	trialStart	1	22	22	foodImage.71	FOODEEG_Images\0713.jpg	NY	Right	Yes	0.893399299999146	0	214262	251
419.52734375	2	decision	foodImageDisplay	1	22	22	foodImage.71	FOODEEG_Images\0713.jpg	NY	Right	Yes	0.893399299999146	0	214799	252
421.591796875	0.893399299999146	decision	choicePhaseStart	1	22	22	foodImage.71	FOODEEG_Images\0713.jpg	NY	Right	Yes	0.893399299999146	0	215856	253
422.4765625	0	decision	response	1	22	22	foodImage.71	FOODEEG_Images\0713.jpg	NY	Right	Yes	0.893399299999146	0	216309	235
423.517578125	1	health	trialStart	1	23	23	foodImage.79	FOODEEG_Images\0794.jpg	YN	Left	Yes	0.668249000000287	0	216842	251
424.560546875	2	health	foodImageDisplay	1	23	23	foodImage.79	FOODEEG_Images\0794.jpg	YN	Left	Yes	0.668249000000287	0	217376	252
426.623046875	0.668249000000287	health	choicePhaseStart	1	23	23	foodImage.79	FOODEEG_Images\0794.jpg	YN	Left	Yes	0.668249000000287	0	218432	253
427.283203125	0	health	response	1	23	23	foodImage.79	FOODEEG_Images\0794.jpg	YN	Left	Yes	0.668249000000287	0	218770	234
428.326171875	1	taste	trialStart	1	24	24	foodImage.59	FOODEEG_Images\0607.jpg	YN	Left	Yes	0.869716699999117	0	219304	251
429.375	2	taste	foodImageDisplay	1	24	24	foodImage.59	FOODEEG_Images\0607.jpg	YN	Left	Yes	0.869716699999117	0	219841	252
431.439453125	0.869716699999117	taste	choicePhaseStart	1	24	24	foodImage.59	FOODEEG_Images\0607.jpg	YN	Left	Yes	0.869716699999117	0	220898	253
432.298828125	0	taste	response	1	24	24	foodImage.59	FOODEEG_Images\0607.jpg	YN	Left	Yes	0.869716699999117	0	221338	234
433.341796875	1	taste	trialStart	1	25	25	foodImage.93	FOODEEG_Images\0901.jpg	NY	Left	No	0.991549000000305	0	221872	251
434.388671875	2	taste	foodImageDisplay	1	25	25	foodImage.93	FOODEEG_Images\0901.jpg	NY	Left	No	0.991549000000305	0	222408	252
436.453125	0.991549000000305	taste	choicePhaseStart	1	25	25	foodImage.93	FOODEEG_Images\0901.jpg	NY	Left	No	0.991549000000305	0	223465	253
437.435546875	0	taste	response	1	25	25	foodImage.93	FOODEEG_Images\0901.jpg	NY	Left	No	0.991549000000305	0	223968	234
438.478515625	1	decision	trialStart	1	26	26	foodImage.61	FOODEEG_Images\0640.jpg	YN	Left	Yes	1.48341789999904	0	224502	251
439.521484375	2	decision	foodImageDisplay	1	26	26	foodImage.61	FOODEEG_Images\0640.jpg	YN	Left	Yes	1.48341789999904	0	225036	252
441.5859375	1.48341789999904	decision	choicePhaseStart	1	26	26	foodImage.61	FOODEEG_Images\0640.jpg	YN	Left	Yes	1.48341789999904	0	226093	253
443.05859375	0	decision	response	1	26	26	foodImage.61	FOODEEG_Images\0640.jpg	YN	Left	Yes	1.48341789999904	0	226847	234
444.103515625	1	decision	trialStart	1	27	27	foodImage.16	FOODEEG_Images\0196.jpg	NY	Left	No	1.18664890000036	0	227382	251
445.162109375	2	decision	foodImageDisplay	1	27	27	foodImage.16	FOODEEG_Images\0196.jpg	NY	Left	No	1.18664890000036	0	227924	252
447.224609375	1.18664890000036	decision	choicePhaseStart	1	27	27	foodImage.16	FOODEEG_Images\0196.jpg	NY	Left	No	1.18664890000036	0	228980	253
448.40234375	0	decision	response	1	27	27	foodImage.16	FOODEEG_Images\0196.jpg	NY	Left	No	1.18664890000036	0	229583	234
449.4453125	1	health	trialStart	1	28	28	foodImage.7	FOODEEG_Images\0116.jpg	YN	Right	No	0.665355299999646	0	230117	251
450.486328125	2	health	foodImageDisplay	1	28	28	foodImage.7	FOODEEG_Images\0116.jpg	YN	Right	No	0.665355299999646	0	230650	252
452.5546875	0.665355299999646	health	choicePhaseStart	1	28	28	foodImage.7	FOODEEG_Images\0116.jpg	YN	Right	No	0.665355299999646	0	231709	253
453.2109375	0	health	response	1	28	28	foodImage.7	FOODEEG_Images\0116.jpg	YN	Right	No	0.665355299999646	0	232045	235
454.251953125	1	health	trialStart	1	29	29	foodImage.56	FOODEEG_Images\0586.jpg	YN	Left	Yes	1.05353029999969	0	232578	251
455.294921875	2	health	foodImageDisplay	1	29	29	foodImage.56	FOODEEG_Images\0586.jpg	YN	Left	Yes	1.05353029999969	0	233112	252
457.357421875	1.05353029999969	health	choicePhaseStart	1	29	29	foodImage.56	FOODEEG_Images\0586.jpg	YN	Left	Yes	1.05353029999969	0	234168	253
458.40234375	0	health	response	1	29	29	foodImage.56	FOODEEG_Images\0586.jpg	YN	Left	Yes	1.05353029999969	0	234703	234
459.447265625	1	taste	trialStart	1	30	30	foodImage.51	FOODEEG_Images\0536.jpg	YN	Right	No	1.00804309999876	0	235238	251
460.4921875	2	taste	foodImageDisplay	1	30	30	foodImage.51	FOODEEG_Images\0536.jpg	YN	Right	No	1.00804309999876	0	235773	252
462.556640625	1.00804309999876	taste	choicePhaseStart	1	30	30	foodImage.51	FOODEEG_Images\0536.jpg	YN	Right	No	1.00804309999876	0	236830	253
463.5546875	0	taste	response	1	30	30	foodImage.51	FOODEEG_Images\0536.jpg	YN	Right	No	1.00804309999876	0	237341	235
464.595703125	1	decision	trialStart	1	31	31	foodImage.43	FOODEEG_Images\0445.jpg	YN	Right	No	1.22113350000109	0	237874	251
465.654296875	2	decision	foodImageDisplay	1	31	31	foodImage.43	FOODEEG_Images\0445.jpg	YN	Right	No	1.22113350000109	0	238416	252
467.71875	1.22113350000109	decision	choicePhaseStart	1	31	31	foodImage.43	FOODEEG_Images\0445.jpg	YN	Right	No	1.22113350000109	0	239473	253
468.9296875	0	decision	response	1	31	31	foodImage.43	FOODEEG_Images\0445.jpg	YN	Right	No	1.22113350000109	0	240093	235
469.978515625	1	decision	trialStart	1	32	32	foodImage.103	FOODEEG_Images\0911.jpg	YN	Right	No	0.579098500000327	0	240630	251
471.017578125	2	decision	foodImageDisplay	1	32	32	foodImage.103	FOODEEG_Images\0911.jpg	YN	Right	No	0.579098500000327	0	241162	252
473.080078125	0.579098500000327	decision	choicePhaseStart	1	32	32	foodImage.103	FOODEEG_Images\0911.jpg	YN	Right	No	0.579098500000327	0	242218	253
473.650390625	0	decision	response	1	32	32	foodImage.103	FOODEEG_Images\0911.jpg	YN	Right	No	0.579098500000327	0	242510	235
474.6953125	1	health	trialStart	1	33	33	foodImage.74	FOODEEG_Images\0752.jpg	YN	Left	Yes	0.785613000000012	0	243045	251
475.740234375	2	health	foodImageDisplay	1	33	33	foodImage.74	FOODEEG_Images\0752.jpg	YN	Left	Yes	0.785613000000012	0	243580	252
477.80859375	0.785613000000012	health	choicePhaseStart	1	33	33	foodImage.74	FOODEEG_Images\0752.jpg	YN	Left	Yes	0.785613000000012	0	244639	253
478.5859375	0	health	response	1	33	33	foodImage.74	FOODEEG_Images\0752.jpg	YN	Left	Yes	0.785613000000012	0	245037	234
479.62890625	1	taste	trialStart	1	34	34	foodImage.109	FOODEEG_Images\0917.jpg	NY	Left	No	0.997777300000962	0	245571	251
480.669921875	2	taste	foodImageDisplay	1	34	34	foodImage.109	FOODEEG_Images\0917.jpg	NY	Left	No	0.997777300000962	0	246104	252
482.732421875	0.997777300000962	taste	choicePhaseStart	1	34	34	foodImage.109	FOODEEG_Images\0917.jpg	NY	Left	No	0.997777300000962	0	247160	253
483.72265625	0	taste	response	1	34	34	foodImage.109	FOODEEG_Images\0917.jpg	NY	Left	No	0.997777300000962	0	247667	234
484.76171875	1	decision	trialStart	1	35	35	foodImage.65	FOODEEG_Images\0658.jpg	YN	Right	No	1.05482119999942	0	248199	251
485.8046875	2	decision	foodImageDisplay	1	35	35	foodImage.65	FOODEEG_Images\0658.jpg	YN	Right	No	1.05482119999942	0	248733	252
487.873046875	1.05482119999942	decision	choicePhaseStart	1	35	35	foodImage.65	FOODEEG_Images\0658.jpg	YN	Right	No	1.05482119999942	0	249792	253
488.921875	0	decision	response	1	35	35	foodImage.65	FOODEEG_Images\0658.jpg	YN	Right	No	1.05482119999942	0	250329	235
489.962890625	1	taste	trialStart	1	36	36	foodImage.35	FOODEEG_Images\0350.jpg	YN	Left	Yes	0.798697399999583	0	250862	251
491.01171875	2	taste	foodImageDisplay	1	36	36	foodImage.35	FOODEEG_Images\0350.jpg	YN	Left	Yes	0.798697399999583	0	251399	252
493.076171875	0.798697399999583	taste	choicePhaseStart	1	36	36	foodImage.35	FOODEEG_Images\0350.jpg	YN	Left	Yes	0.798697399999583	0	252456	253
493.865234375	0	taste	response	1	36	36	foodImage.35	FOODEEG_Images\0350.jpg	YN	Left	Yes	0.798697399999583	0	252860	234
494.91015625	1	taste	trialStart	1	37	37	foodImage.3	FOODEEG_Images\0046.jpg	YN	Left	Yes	0.574172399999952	0	253395	251
495.97265625	2	taste	foodImageDisplay	1	37	37	foodImage.3	FOODEEG_Images\0046.jpg	YN	Left	Yes	0.574172399999952	0	253939	252
498.04296875	0.574172399999952	taste	choicePhaseStart	1	37	37	foodImage.3	FOODEEG_Images\0046.jpg	YN	Left	Yes	0.574172399999952	0	254999	253
498.609375	0	taste	response	1	37	37	foodImage.3	FOODEEG_Images\0046.jpg	YN	Left	Yes	0.574172399999952	0	255289	234
499.65234375	1	decision	trialStart	1	38	38	foodImage.36	FOODEEG_Images\0352.jpg	YN	Left	Yes	1.06665769999927	0	255823	251
500.7109375	2	decision	foodImageDisplay	1	38	38	foodImage.36	FOODEEG_Images\0352.jpg	YN	Left	Yes	1.06665769999927	0	256365	252
502.775390625	1.06665769999927	decision	choicePhaseStart	1	38	38	foodImage.36	FOODEEG_Images\0352.jpg	YN	Left	Yes	1.06665769999927	0	257422	253
503.83203125	0	decision	response	1	38	38	foodImage.36	FOODEEG_Images\0352.jpg	YN	Left	Yes	1.06665769999927	0	257963	234
504.875	1	taste	trialStart	1	39	39	foodImage.55	FOODEEG_Images\0567.jpg	NY	Right	Yes	0.746071400000801	0	258497	251
505.9375	2	taste	foodImageDisplay	1	39	39	foodImage.55	FOODEEG_Images\0567.jpg	NY	Right	Yes	0.746071400000801	0	259041	252
508	0.746071400000801	taste	choicePhaseStart	1	39	39	foodImage.55	FOODEEG_Images\0567.jpg	NY	Right	Yes	0.746071400000801	0	260097	253
508.736328125	0	taste	response	1	39	39	foodImage.55	FOODEEG_Images\0567.jpg	NY	Right	Yes	0.746071400000801	0	260474	235
509.77734375	1	decision	trialStart	1	40	40	foodImage.33	FOODEEG_Images\0329.jpg	NY	Left	No	0.902766600000177	0	261007	251
510.8203125	2	decision	foodImageDisplay	1	40	40	foodImage.33	FOODEEG_Images\0329.jpg	NY	Left	No	0.902766600000177	0	261541	252
512.8828125	0.902766600000177	decision	choicePhaseStart	1	40	40	foodImage.33	FOODEEG_Images\0329.jpg	NY	Left	No	0.902766600000177	0	262597	253
513.775390625	0	decision	response	1	40	40	foodImage.33	FOODEEG_Images\0329.jpg	NY	Left	No	0.902766600000177	0	263054	234
514.818359375	1	taste	trialStart	1	41	41	foodImage.30	FOODEEG_Images\0282.jpg	YN	Left	Yes	0.823191299999962	0	263588	251
515.861328125	2	taste	foodImageDisplay	1	41	41	foodImage.30	FOODEEG_Images\0282.jpg	YN	Left	Yes	0.823191299999962	0	264122	252
517.9296875	0.823191299999962	taste	choicePhaseStart	1	41	41	foodImage.30	FOODEEG_Images\0282.jpg	YN	Left	Yes	0.823191299999962	0	265181	253
518.744140625	0	taste	response	1	41	41	foodImage.30	FOODEEG_Images\0282.jpg	YN	Left	Yes	0.823191299999962	0	265598	234
519.787109375	1	decision	trialStart	1	42	42	foodImage.37	FOODEEG_Images\0359.jpg	NY	Right	Yes	1.53150780000033	0	266132	251
520.830078125	2	decision	foodImageDisplay	1	42	42	foodImage.37	FOODEEG_Images\0359.jpg	NY	Right	Yes	1.53150780000033	0	266666	252
522.89453125	1.53150780000033	decision	choicePhaseStart	1	42	42	foodImage.37	FOODEEG_Images\0359.jpg	NY	Right	Yes	1.53150780000033	0	267723	253
524.416015625	0	decision	response	1	42	42	foodImage.37	FOODEEG_Images\0359.jpg	NY	Right	Yes	1.53150780000033	0	268502	235
525.45703125	1	decision	trialStart	1	43	43	foodImage.119	FOODEEG_Images\0927.jpg	YN	Right	No	1.25514470000053	0	269035	251
526.498046875	2	decision	foodImageDisplay	1	43	43	foodImage.119	FOODEEG_Images\0927.jpg	YN	Right	No	1.25514470000053	0	269568	252
528.5625	1.25514470000053	decision	choicePhaseStart	1	43	43	foodImage.119	FOODEEG_Images\0927.jpg	YN	Right	No	1.25514470000053	0	270625	253
529.80859375	0	decision	response	1	43	43	foodImage.119	FOODEEG_Images\0927.jpg	YN	Right	No	1.25514470000053	0	271263	235
530.8515625	1	taste	trialStart	1	44	44	foodImage.117	FOODEEG_Images\0925.jpg	NY	Right	Yes	0.479694399999062	0	271797	251
531.890625	2	taste	foodImageDisplay	1	44	44	foodImage.117	FOODEEG_Images\0925.jpg	NY	Right	Yes	0.479694399999062	0	272329	252
533.953125	0.479694399999062	taste	choicePhaseStart	1	44	44	foodImage.117	FOODEEG_Images\0925.jpg	NY	Right	Yes	0.479694399999062	0	273385	253
534.423828125	0	taste	response	1	44	44	foodImage.117	FOODEEG_Images\0925.jpg	NY	Right	Yes	0.479694399999062	0	273626	235
535.466796875	1	decision	trialStart	1	45	45	foodImage.13	FOODEEG_Images\0183.jpg	YN	Left	Yes	0.764796199999182	0	274160	251
536.5078125	2	decision	foodImageDisplay	1	45	45	foodImage.13	FOODEEG_Images\0183.jpg	YN	Left	Yes	0.764796199999182	0	274693	252
538.572265625	0.764796199999182	decision	choicePhaseStart	1	45	45	foodImage.13	FOODEEG_Images\0183.jpg	YN	Left	Yes	0.764796199999182	0	275750	253
539.328125	0	decision	response	1	45	45	foodImage.13	FOODEEG_Images\0183.jpg	YN	Left	Yes	0.764796199999182	0	276137	234
540.37109375	1	taste	trialStart	1	46	46	foodImage.106	FOODEEG_Images\0914.jpg	YN	Right	No	0.926073099999485	0	276671	251
541.41015625	2	taste	foodImageDisplay	1	46	46	foodImage.106	FOODEEG_Images\0914.jpg	YN	Right	No	0.926073099999485	0	277203	252
543.474609375	0.926073099999485	taste	choicePhaseStart	1	46	46	foodImage.106	FOODEEG_Images\0914.jpg	YN	Right	No	0.926073099999485	0	278260	253
544.390625	0	taste	response	1	46	46	foodImage.106	FOODEEG_Images\0914.jpg	YN	Right	No	0.926073099999485	0	278729	235
545.43359375	1	decision	trialStart	1	47	47	foodImage.109	FOODEEG_Images\0917.jpg	YN	Right	No	0.800479300000006	0	279263	251
546.47265625	2	decision	foodImageDisplay	1	47	47	foodImage.109	FOODEEG_Images\0917.jpg	YN	Right	No	0.800479300000006	0	279795	252
548.537109375	0.800479300000006	decision	choicePhaseStart	1	47	47	foodImage.109	FOODEEG_Images\0917.jpg	YN	Right	No	0.800479300000006	0	280852	253
549.328125	0	decision	response	1	47	47	foodImage.109	FOODEEG_Images\0917.jpg	YN	Right	No	0.800479300000006	0	281257	235
550.37109375	1	decision	trialStart	1	48	48	foodImage.50	FOODEEG_Images\0529.jpg	YN	Left	Yes	1.13909070000045	0	281791	251
551.427734375	2	decision	foodImageDisplay	1	48	48	foodImage.50	FOODEEG_Images\0529.jpg	YN	Left	Yes	1.13909070000045	0	282332	252
553.4921875	1.13909070000045	decision	choicePhaseStart	1	48	48	foodImage.50	FOODEEG_Images\0529.jpg	YN	Left	Yes	1.13909070000045	0	283389	253
554.623046875	0	decision	response	1	48	48	foodImage.50	FOODEEG_Images\0529.jpg	YN	Left	Yes	1.13909070000045	0	283968	234
555.666015625	1	health	trialStart	1	49	49	foodImage.8	FOODEEG_Images\0136.jpg	NY	Left	No	1.03316720000112	0	284502	251
556.7109375	2	health	foodImageDisplay	1	49	49	foodImage.8	FOODEEG_Images\0136.jpg	NY	Left	No	1.03316720000112	0	285037	252
558.775390625	1.03316720000112	health	choicePhaseStart	1	49	49	foodImage.8	FOODEEG_Images\0136.jpg	NY	Left	No	1.03316720000112	0	286094	253
559.798828125	0	health	response	1	49	49	foodImage.8	FOODEEG_Images\0136.jpg	NY	Left	No	1.03316720000112	0	286618	234
560.841796875	1	decision	trialStart	1	50	50	foodImage.80	FOODEEG_Images\0796.jpg	NY	Left	No	1.00378929999897	0	287152	251
561.8984375	2	decision	foodImageDisplay	1	50	50	foodImage.80	FOODEEG_Images\0796.jpg	NY	Left	No	1.00378929999897	0	287693	252
563.96484375	1.00378929999897	decision	choicePhaseStart	1	50	50	foodImage.80	FOODEEG_Images\0796.jpg	NY	Left	No	1.00378929999897	0	288751	253
564.958984375	0	decision	response	1	50	50	foodImage.80	FOODEEG_Images\0796.jpg	NY	Left	No	1.00378929999897	0	289260	234
566.0078125	1	health	trialStart	1	51	51	foodImage.119	FOODEEG_Images\0927.jpg	YN	Right	No	1.22647059999872	0	289797	251
567.044921875	2	health	foodImageDisplay	1	51	51	foodImage.119	FOODEEG_Images\0927.jpg	YN	Right	No	1.22647059999872	0	290328	252
569.109375	1.22647059999872	health	choicePhaseStart	1	51	51	foodImage.119	FOODEEG_Images\0927.jpg	YN	Right	No	1.22647059999872	0	291385	253
570.326171875	0	health	response	1	51	51	foodImage.119	FOODEEG_Images\0927.jpg	YN	Right	No	1.22647059999872	0	292008	235
571.373046875	1	taste	trialStart	1	52	52	foodImage.96	FOODEEG_Images\0904.jpg	YN	Left	Yes	0.68529430000126	0	292544	251
572.419921875	2	taste	foodImageDisplay	1	52	52	foodImage.96	FOODEEG_Images\0904.jpg	YN	Left	Yes	0.68529430000126	0	293080	252
574.48828125	0.68529430000126	taste	choicePhaseStart	1	52	52	foodImage.96	FOODEEG_Images\0904.jpg	YN	Left	Yes	0.68529430000126	0	294139	253
575.166015625	0	taste	response	1	52	52	foodImage.96	FOODEEG_Images\0904.jpg	YN	Left	Yes	0.68529430000126	0	294486	234
576.208984375	1	health	trialStart	1	53	53	foodImage.48	FOODEEG_Images\0494.jpg	NY	Left	No	1.03102330000002	0	295020	251
577.251953125	2	health	foodImageDisplay	1	53	53	foodImage.48	FOODEEG_Images\0494.jpg	NY	Left	No	1.03102330000002	0	295554	252
579.31640625	1.03102330000002	health	choicePhaseStart	1	53	53	foodImage.48	FOODEEG_Images\0494.jpg	NY	Left	No	1.03102330000002	0	296611	253
580.341796875	0	health	response	1	53	53	foodImage.48	FOODEEG_Images\0494.jpg	NY	Left	No	1.03102330000002	0	297136	234
581.408203125	1	decision	trialStart	1	54	54	foodImage.19	FOODEEG_Images\0225.jpg	YN	Left	Yes	1.26955330000055	0	297682	251
582.451171875	2	decision	foodImageDisplay	1	54	54	foodImage.19	FOODEEG_Images\0225.jpg	YN	Left	Yes	1.26955330000055	0	298216	252
584.513671875	1.26955330000055	decision	choicePhaseStart	1	54	54	foodImage.19	FOODEEG_Images\0225.jpg	YN	Left	Yes	1.26955330000055	0	299272	253
585.7734375	0	decision	response	1	54	54	foodImage.19	FOODEEG_Images\0225.jpg	YN	Left	Yes	1.26955330000055	0	299917	234
586.822265625	1	taste	trialStart	1	55	55	foodImage.63	FOODEEG_Images\0645.jpg	NY	Right	Yes	0.994994700000461	0	300454	251
587.8828125	2	taste	foodImageDisplay	1	55	55	foodImage.63	FOODEEG_Images\0645.jpg	NY	Right	Yes	0.994994700000461	0	300997	252
589.947265625	0.994994700000461	taste	choicePhaseStart	1	55	55	foodImage.63	FOODEEG_Images\0645.jpg	NY	Right	Yes	0.994994700000461	0	302054	253
590.93359375	0	taste	response	1	55	55	foodImage.63	FOODEEG_Images\0645.jpg	NY	Right	Yes	0.994994700000461	0	302559	235
591.9765625	1	decision	trialStart	1	56	56	foodImage.18	FOODEEG_Images\0202.jpg	YN	Left	Yes	0.648697799999354	0	303093	251
593.0390625	2	decision	foodImageDisplay	1	56	56	foodImage.18	FOODEEG_Images\0202.jpg	YN	Left	Yes	0.648697799999354	0	303637	252
595.1015625	0.648697799999354	decision	choicePhaseStart	1	56	56	foodImage.18	FOODEEG_Images\0202.jpg	YN	Left	Yes	0.648697799999354	0	304693	253
595.7421875	0	decision	response	1	56	56	foodImage.18	FOODEEG_Images\0202.jpg	YN	Left	Yes	0.648697799999354	0	305021	234
596.783203125	1	taste	trialStart	1	57	57	foodImage.80	FOODEEG_Images\0796.jpg	YN	Right	No	0.968166699998619	0	305554	251
597.83984375	2	taste	foodImageDisplay	1	57	57	foodImage.80	FOODEEG_Images\0796.jpg	YN	Right	No	0.968166699998619	0	306095	252
599.90234375	0.968166699998619	taste	choicePhaseStart	1	57	57	foodImage.80	FOODEEG_Images\0796.jpg	YN	Right	No	0.968166699998619	0	307151	253
600.861328125	0	taste	response	1	57	57	foodImage.80	FOODEEG_Images\0796.jpg	YN	Right	No	0.968166699998619	0	307642	235
601.904296875	1	health	trialStart	1	58	58	foodImage.113	FOODEEG_Images\0921.jpg	NY	Right	Yes	1.9495422	0	308176	251
602.9453125	2	health	foodImageDisplay	1	58	58	foodImage.113	FOODEEG_Images\0921.jpg	NY	Right	Yes	1.9495422	0	308709	252
605.0078125	1.9495422	health	choicePhaseStart	1	58	58	foodImage.113	FOODEEG_Images\0921.jpg	NY	Right	Yes	1.9495422	0	309765	253
606.94921875	0	health	response	1	58	58	foodImage.113	FOODEEG_Images\0921.jpg	NY	Right	Yes	1.9495422	0	310759	235
607.990234375	1	health	trialStart	1	59	59	foodImage.82	FOODEEG_Images\0805.jpg	NY	Right	Yes	0.614072899999883	0	311292	251
609.056640625	2	health	foodImageDisplay	1	59	59	foodImage.82	FOODEEG_Images\0805.jpg	NY	Right	Yes	0.614072899999883	0	311838	252
611.12109375	0.614072899999883	health	choicePhaseStart	1	59	59	foodImage.82	FOODEEG_Images\0805.jpg	NY	Right	Yes	0.614072899999883	0	312895	253
611.724609375	0	health	response	1	59	59	foodImage.82	FOODEEG_Images\0805.jpg	NY	Right	Yes	0.614072899999883	0	313204	235
612.767578125	1	taste	trialStart	1	60	60	foodImage.19	FOODEEG_Images\0225.jpg	NY	Right	Yes	0.81385279999995	0	313738	251
613.83203125	2	taste	foodImageDisplay	1	60	60	foodImage.19	FOODEEG_Images\0225.jpg	NY	Right	Yes	0.81385279999995	0	314283	252
615.89453125	0.81385279999995	taste	choicePhaseStart	1	60	60	foodImage.19	FOODEEG_Images\0225.jpg	NY	Right	Yes	0.81385279999995	0	315339	253
616.701171875	0	taste	response	1	60	60	foodImage.19	FOODEEG_Images\0225.jpg	NY	Right	Yes	0.81385279999995	0	315752	235
618.7421875	32.46484375	n/a	blockEnd	n/a	n/a	n/a	n/a	n/a	n/a	n/a	n/a	n/a	n/a	316797	254
651.20703125	2	n/a	blockStart	2	n/a	n/a	n/a	n/a	n/a	n/a	n/a	n/a	n/a	333419	250
653.244140625	1	health	trialStart	2	61	1	foodImage.2	FOODEEG_Images\0028.jpg	NY	Left	No	1.03260930000033	0	334462	251
654.2890625	2	health	foodImageDisplay	2	61	1	foodImage.2	FOODEEG_Images\0028.jpg	NY	Left	No	1.03260930000033	0	334997	252
656.353515625	1.03260930000033	health	choicePhaseStart	2	61	1	foodImage.2	FOODEEG_Images\0028.jpg	NY	Left	No	1.03260930000033	0	336054	253
657.37890625	0	health	response	2	61	1	foodImage.2	FOODEEG_Images\0028.jpg	NY	Left	No	1.03260930000033	0	336579	234
658.421875	1	decision	trialStart	2	62	2	foodImage.72	FOODEEG_Images\0714.jpg	YN	Right	No	1.19267219999892	0	337113	251
659.466796875	2	decision	foodImageDisplay	2	62	2	foodImage.72	FOODEEG_Images\0714.jpg	YN	Right	No	1.19267219999892	0	337648	252
661.53125	1.19267219999892	decision	choicePhaseStart	2	62	2	foodImage.72	FOODEEG_Images\0714.jpg	YN	Right	No	1.19267219999892	0	338705	253
662.71484375	0	decision	response	2	62	2	foodImage.72	FOODEEG_Images\0714.jpg	YN	Right	No	1.19267219999892	0	339311	235
663.78125	1	health	trialStart	2	63	3	foodImage.15	FOODEEG_Images\0189.jpg	NY	Left	No	0.680577000000994	0	339857	251
664.8671875	2	health	foodImageDisplay	2	63	3	foodImage.15	FOODEEG_Images\0189.jpg	NY	Left	No	0.680577000000994	0	340413	252
666.931640625	0.680577000000994	health	choicePhaseStart	2	63	3	foodImage.15	FOODEEG_Images\0189.jpg	NY	Left	No	0.680577000000994	0	341470	253
667.6015625	0	health	response	2	63	3	foodImage.15	FOODEEG_Images\0189.jpg	NY	Left	No	0.680577000000994	0	341813	234
668.64453125	1	health	trialStart	2	64	4	foodImage.24	FOODEEG_Images\0250.jpg	NY	Right	Yes	0.667464000000109	0	342347	251
669.6875	2	health	foodImageDisplay	2	64	4	foodImage.24	FOODEEG_Images\0250.jpg	NY	Right	Yes	0.667464000000109	0	342881	252
671.75	0.667464000000109	health	choicePhaseStart	2	64	4	foodImage.24	FOODEEG_Images\0250.jpg	NY	Right	Yes	0.667464000000109	0	343937	253
672.41015625	0	health	response	2	64	4	foodImage.24	FOODEEG_Images\0250.jpg	NY	Right	Yes	0.667464000000109	0	344275	235
673.455078125	1	taste	trialStart	2	65	5	foodImage.32	FOODEEG_Images\0319.jpg	NY	Left	No	0.928695299999163	0	344810	251
674.498046875	2	taste	foodImageDisplay	2	65	5	foodImage.32	FOODEEG_Images\0319.jpg	NY	Left	No	0.928695299999163	0	345344	252
676.5625	0.928695299999163	taste	choicePhaseStart	2	65	5	foodImage.32	FOODEEG_Images\0319.jpg	NY	Left	No	0.928695299999163	0	346401	253
677.482421875	0	taste	response	2	65	5	foodImage.32	FOODEEG_Images\0319.jpg	NY	Left	No	0.928695299999163	0	346872	234
678.525390625	1	decision	trialStart	2	66	6	foodImage.100	FOODEEG_Images\0908.jpg	NY	Left	No	1.26384900000085	0	347406	251
679.564453125	2	decision	foodImageDisplay	2	66	6	foodImage.100	FOODEEG_Images\0908.jpg	NY	Left	No	1.26384900000085	0	347938	252
681.626953125	1.26384900000085	decision	choicePhaseStart	2	66	6	foodImage.100	FOODEEG_Images\0908.jpg	NY	Left	No	1.26384900000085	0	348994	253
682.8828125	0	decision	response	2	66	6	foodImage.100	FOODEEG_Images\0908.jpg	NY	Left	No	1.26384900000085	0	349637	234
683.923828125	1	health	trialStart	2	67	7	foodImage.110	FOODEEG_Images\0918.jpg	NY	Left	No	1.01370979999956	0	350170	251
684.96484375	2	health	foodImageDisplay	2	67	7	foodImage.110	FOODEEG_Images\0918.jpg	NY	Left	No	1.01370979999956	0	350703	252
687.029296875	1.01370979999956	health	choicePhaseStart	2	67	7	foodImage.110	FOODEEG_Images\0918.jpg	NY	Left	No	1.01370979999956	0	351760	253
688.033203125	0	health	response	2	67	7	foodImage.110	FOODEEG_Images\0918.jpg	NY	Left	No	1.01370979999956	0	352274	234
689.08203125	1	taste	trialStart	2	68	8	foodImage.66	FOODEEG_Images\0676.jpg	YN	Left	Yes	0.887066299999788	0	352811	251
690.125	2	taste	foodImageDisplay	2	68	8	foodImage.66	FOODEEG_Images\0676.jpg	YN	Left	Yes	0.887066299999788	0	353345	252
692.1953125	0.887066299999788	taste	choicePhaseStart	2	68	8	foodImage.66	FOODEEG_Images\0676.jpg	YN	Left	Yes	0.887066299999788	0	354405	253
693.07421875	0	taste	response	2	68	8	foodImage.66	FOODEEG_Images\0676.jpg	YN	Left	Yes	0.887066299999788	0	354855	234
694.1171875	1	health	trialStart	2	69	9	foodImage.70	FOODEEG_Images\0705.jpg	NY	Right	Yes	1.37687890000052	0	355389	251
695.17578125	2	health	foodImageDisplay	2	69	9	foodImage.70	FOODEEG_Images\0705.jpg	NY	Right	Yes	1.37687890000052	0	355931	252
697.23828125	1.37687890000052	health	choicePhaseStart	2	69	9	foodImage.70	FOODEEG_Images\0705.jpg	NY	Right	Yes	1.37687890000052	0	356987	253
698.609375	0	health	response	2	69	9	foodImage.70	FOODEEG_Images\0705.jpg	NY	Right	Yes	1.37687890000052	0	357689	235
699.654296875	1	health	trialStart	2	70	10	foodImage.77	FOODEEG_Images\0771.jpg	NY	Right	Yes	0.790213500000391	0	358224	251
700.69921875	2	health	foodImageDisplay	2	70	10	foodImage.77	FOODEEG_Images\0771.jpg	NY	Right	Yes	0.790213500000391	0	358759	252
702.763671875	0.790213500000391	health	choicePhaseStart	2	70	10	foodImage.77	FOODEEG_Images\0771.jpg	NY	Right	Yes	0.790213500000391	0	359816	253
703.544921875	0	health	response	2	70	10	foodImage.77	FOODEEG_Images\0771.jpg	NY	Right	Yes	0.790213500000391	0	360216	235
704.587890625	1	taste	trialStart	2	71	11	foodImage.33	FOODEEG_Images\0329.jpg	NY	Left	No	1.11809910000011	0	360750	251
705.62890625	2	taste	foodImageDisplay	2	71	11	foodImage.33	FOODEEG_Images\0329.jpg	NY	Left	No	1.11809910000011	0	361283	252
707.69140625	1.11809910000011	taste	choicePhaseStart	2	71	11	foodImage.33	FOODEEG_Images\0329.jpg	NY	Left	No	1.11809910000011	0	362339	253
708.80078125	0	taste	response	2	71	11	foodImage.33	FOODEEG_Images\0329.jpg	NY	Left	No	1.11809910000011	0	362907	234
709.845703125	1	decision	trialStart	2	72	12	foodImage.77	FOODEEG_Images\0771.jpg	NY	Right	Yes	0.685901800001375	0	363442	251
710.888671875	2	decision	foodImageDisplay	2	72	12	foodImage.77	FOODEEG_Images\0771.jpg	NY	Right	Yes	0.685901800001375	0	363976	252
712.955078125	0.685901800001375	decision	choicePhaseStart	2	72	12	foodImage.77	FOODEEG_Images\0771.jpg	NY	Right	Yes	0.685901800001375	0	365034	253
713.6328125	0	decision	response	2	72	12	foodImage.77	FOODEEG_Images\0771.jpg	NY	Right	Yes	0.685901800001375	0	365381	235
714.67578125	1	taste	trialStart	2	73	13	foodImage.79	FOODEEG_Images\0794.jpg	NY	Right	Yes	1.32961520000026	0	365915	251
715.728515625	2	taste	foodImageDisplay	2	73	13	foodImage.79	FOODEEG_Images\0794.jpg	NY	Right	Yes	1.32961520000026	0	366454	252
717.791015625	1.32961520000026	taste	choicePhaseStart	2	73	13	foodImage.79	FOODEEG_Images\0794.jpg	NY	Right	Yes	1.32961520000026	0	367510	253
719.111328125	0	taste	response	2	73	13	foodImage.79	FOODEEG_Images\0794.jpg	NY	Right	Yes	1.32961520000026	0	368186	235
720.154296875	1	taste	trialStart	2	74	14	foodImage.12	FOODEEG_Images\0181.jpg	YN	Left	Yes	0.860494099999414	0	368720	251
721.197265625	2	taste	foodImageDisplay	2	74	14	foodImage.12	FOODEEG_Images\0181.jpg	YN	Left	Yes	0.860494099999414	0	369254	252
723.259765625	0.860494099999414	taste	choicePhaseStart	2	74	14	foodImage.12	FOODEEG_Images\0181.jpg	YN	Left	Yes	0.860494099999414	0	370310	253
724.111328125	0	taste	response	2	74	14	foodImage.12	FOODEEG_Images\0181.jpg	YN	Left	Yes	0.860494099999414	0	370746	234
725.154296875	1	health	trialStart	2	75	15	foodImage.99	FOODEEG_Images\0907.jpg	YN	Right	No	0.791064899998673	0	371280	251
726.193359375	2	health	foodImageDisplay	2	75	15	foodImage.99	FOODEEG_Images\0907.jpg	YN	Right	No	0.791064899998673	0	371812	252
728.2578125	0.791064899998673	health	choicePhaseStart	2	75	15	foodImage.99	FOODEEG_Images\0907.jpg	YN	Right	No	0.791064899998673	0	372869	253
729.0390625	0	health	response	2	75	15	foodImage.99	FOODEEG_Images\0907.jpg	YN	Right	No	0.791064899998673	0	373269	235
730.091796875	1	decision	trialStart	2	76	16	foodImage.40	FOODEEG_Images\0373.jpg	NY	Right	Yes	1.52879380000013	0	373808	251
731.14453125	2	decision	foodImageDisplay	2	76	16	foodImage.40	FOODEEG_Images\0373.jpg	NY	Right	Yes	1.52879380000013	0	374347	252
733.20703125	1.52879380000013	decision	choicePhaseStart	2	76	16	foodImage.40	FOODEEG_Images\0373.jpg	NY	Right	Yes	1.52879380000013	0	375403	253
734.728515625	0	decision	response	2	76	16	foodImage.40	FOODEEG_Images\0373.jpg	NY	Right	Yes	1.52879380000013	0	376182	235
735.771484375	1	decision	trialStart	2	77	17	foodImage.57	FOODEEG_Images\0587.jpg	NY	Right	Yes	1.19244830000025	0	376716	251
736.83203125	2	decision	foodImageDisplay	2	77	17	foodImage.57	FOODEEG_Images\0587.jpg	NY	Right	Yes	1.19244830000025	0	377259	252
738.896484375	1.19244830000025	decision	choicePhaseStart	2	77	17	foodImage.57	FOODEEG_Images\0587.jpg	NY	Right	Yes	1.19244830000025	0	378316	253
740.080078125	0	decision	response	2	77	17	foodImage.57	FOODEEG_Images\0587.jpg	NY	Right	Yes	1.19244830000025	0	378922	235
741.123046875	1	taste	trialStart	2	78	18	foodImage.100	FOODEEG_Images\0908.jpg	YN	Right	No	1.01900200000091	0	379456	251
742.162109375	2	taste	foodImageDisplay	2	78	18	foodImage.100	FOODEEG_Images\0908.jpg	YN	Right	No	1.01900200000091	0	379988	252
744.228515625	1.01900200000091	taste	choicePhaseStart	2	78	18	foodImage.100	FOODEEG_Images\0908.jpg	YN	Right	No	1.01900200000091	0	381046	253
745.23828125	0	taste	response	2	78	18	foodImage.100	FOODEEG_Images\0908.jpg	YN	Right	No	1.01900200000091	0	381563	235
746.28125	1	taste	trialStart	2	79	19	foodImage.116	FOODEEG_Images\0924.jpg	YN	Right	No	0.605157500000132	0	382097	251
747.3203125	2	taste	foodImageDisplay	2	79	19	foodImage.116	FOODEEG_Images\0924.jpg	YN	Right	No	0.605157500000132	0	382629	252
749.38671875	0.605157500000132	taste	choicePhaseStart	2	79	19	foodImage.116	FOODEEG_Images\0924.jpg	YN	Right	No	0.605157500000132	0	383687	253
749.982421875	0	taste	response	2	79	19	foodImage.116	FOODEEG_Images\0924.jpg	YN	Right	No	0.605157500000132	0	383992	235
751.025390625	1	decision	trialStart	2	80	20	foodImage.110	FOODEEG_Images\0918.jpg	NY	Left	No	1.12589409999964	0	384526	251
752.06640625	2	decision	foodImageDisplay	2	80	20	foodImage.110	FOODEEG_Images\0918.jpg	NY	Left	No	1.12589409999964	0	385059	252
754.134765625	1.12589409999964	decision	choicePhaseStart	2	80	20	foodImage.110	FOODEEG_Images\0918.jpg	NY	Left	No	1.12589409999964	0	386118	253
755.25390625	0	decision	response	2	80	20	foodImage.110	FOODEEG_Images\0918.jpg	NY	Left	No	1.12589409999964	0	386691	234
756.296875	1	taste	trialStart	2	81	21	foodImage.25	FOODEEG_Images\0261.jpg	YN	Left	Yes	0.792983999999706	0	387225	251
757.33984375	2	taste	foodImageDisplay	2	81	21	foodImage.25	FOODEEG_Images\0261.jpg	YN	Left	Yes	0.792983999999706	0	387759	252
759.404296875	0.792983999999706	taste	choicePhaseStart	2	81	21	foodImage.25	FOODEEG_Images\0261.jpg	YN	Left	Yes	0.792983999999706	0	388816	253
760.19140625	0	taste	response	2	81	21	foodImage.25	FOODEEG_Images\0261.jpg	YN	Left	Yes	0.792983999999706	0	389219	234
761.23828125	1	taste	trialStart	2	82	22	foodImage.68	FOODEEG_Images\0685.jpg	NY	Right	Yes	0.858130399999936	0	389755	251
762.318359375	2	taste	foodImageDisplay	2	82	22	foodImage.68	FOODEEG_Images\0685.jpg	NY	Right	Yes	0.858130399999936	0	390308	252
764.380859375	0.858130399999936	taste	choicePhaseStart	2	82	22	foodImage.68	FOODEEG_Images\0685.jpg	NY	Right	Yes	0.858130399999936	0	391364	253
765.23046875	0	taste	response	2	82	22	foodImage.68	FOODEEG_Images\0685.jpg	NY	Right	Yes	0.858130399999936	0	391799	235
766.283203125	1	health	trialStart	2	83	23	foodImage.102	FOODEEG_Images\0910.jpg	YN	Left	Yes	0.801162199999453	0	392338	251
767.32421875	2	health	foodImageDisplay	2	83	23	foodImage.102	FOODEEG_Images\0910.jpg	YN	Left	Yes	0.801162199999453	0	392871	252
769.388671875	0.801162199999453	health	choicePhaseStart	2	83	23	foodImage.102	FOODEEG_Images\0910.jpg	YN	Left	Yes	0.801162199999453	0	393928	253
770.181640625	0	health	response	2	83	23	foodImage.102	FOODEEG_Images\0910.jpg	YN	Left	Yes	0.801162199999453	0	394334	234
771.23046875	1	decision	trialStart	2	84	24	foodImage.111	FOODEEG_Images\0919.jpg	YN	Right	No	0.806883000001108	0	394871	251
772.28125	2	decision	foodImageDisplay	2	84	24	foodImage.111	FOODEEG_Images\0919.jpg	YN	Right	No	0.806883000001108	0	395409	252
774.34375	0.806883000001108	decision	choicePhaseStart	2	84	24	foodImage.111	FOODEEG_Images\0919.jpg	YN	Right	No	0.806883000001108	0	396465	253
775.142578125	0	decision	response	2	84	24	foodImage.111	FOODEEG_Images\0919.jpg	YN	Right	No	0.806883000001108	0	396874	235
776.189453125	1	decision	trialStart	2	85	25	foodImage.1	FOODEEG_Images\0004.jpg	YN	Left	Yes	0.852495200000703	0	397410	251
777.234375	2	decision	foodImageDisplay	2	85	25	foodImage.1	FOODEEG_Images\0004.jpg	YN	Left	Yes	0.852495200000703	0	397945	252
779.298828125	0.852495200000703	decision	choicePhaseStart	2	85	25	foodImage.1	FOODEEG_Images\0004.jpg	YN	Left	Yes	0.852495200000703	0	399002	253
780.142578125	0	decision	response	2	85	25	foodImage.1	FOODEEG_Images\0004.jpg	YN	Left	Yes	0.852495200000703	0	399434	234
781.197265625	1	decision	trialStart	2	86	26	foodImage.58	FOODEEG_Images\0605.jpg	NY	Right	Yes	0.661776200000531	0	399974	251
782.2578125	2	decision	foodImageDisplay	2	86	26	foodImage.58	FOODEEG_Images\0605.jpg	NY	Right	Yes	0.661776200000531	0	400517	252
784.326171875	0.661776200000531	decision	choicePhaseStart	2	86	26	foodImage.58	FOODEEG_Images\0605.jpg	NY	Right	Yes	0.661776200000531	0	401576	253
784.982421875	0	decision	response	2	86	26	foodImage.58	FOODEEG_Images\0605.jpg	NY	Right	Yes	0.661776200000531	0	401912	235
786.02734375	1	taste	trialStart	2	87	27	foodImage.15	FOODEEG_Images\0189.jpg	NY	Right	Yes	0.722420599999168	0	402447	251
787.083984375	2	taste	foodImageDisplay	2	87	27	foodImage.15	FOODEEG_Images\0189.jpg	NY	Right	Yes	0.722420599999168	0	402988	252
789.1484375	0.722420599999168	taste	choicePhaseStart	2	87	27	foodImage.15	FOODEEG_Images\0189.jpg	NY	Right	Yes	0.722420599999168	0	404045	253
789.861328125	0	taste	response	2	87	27	foodImage.15	FOODEEG_Images\0189.jpg	NY	Right	Yes	0.722420599999168	0	404410	235
790.904296875	1	decision	trialStart	2	88	28	foodImage.47	FOODEEG_Images\0488.jpg	NY	Right	Yes	0.618306200000006	0	404944	251
791.947265625	2	decision	foodImageDisplay	2	88	28	foodImage.47	FOODEEG_Images\0488.jpg	NY	Right	Yes	0.618306200000006	0	405478	252
794.01171875	0.618306200000006	decision	choicePhaseStart	2	88	28	foodImage.47	FOODEEG_Images\0488.jpg	NY	Right	Yes	0.618306200000006	0	406535	253
794.62109375	0	decision	response	2	88	28	foodImage.47	FOODEEG_Images\0488.jpg	NY	Right	Yes	0.618306200000006	0	406847	235
795.666015625	1	decision	trialStart	2	89	29	foodImage.87	FOODEEG_Images\0873.jpg	NY	Left	No	1.02557969999907	0	407382	251
796.72265625	2	decision	foodImageDisplay	2	89	29	foodImage.87	FOODEEG_Images\0873.jpg	NY	Left	No	1.02557969999907	0	407923	252
798.7890625	1.02557969999907	decision	choicePhaseStart	2	89	29	foodImage.87	FOODEEG_Images\0873.jpg	NY	Left	No	1.02557969999907	0	408981	253
799.8046875	0	decision	response	2	89	29	foodImage.87	FOODEEG_Images\0873.jpg	NY	Left	No	1.02557969999907	0	409501	234
800.84765625	1	decision	trialStart	2	90	30	foodImage.107	FOODEEG_Images\0915.jpg	YN	Right	No	0.745614199999181	0	410035	251
801.884765625	2	decision	foodImageDisplay	2	90	30	foodImage.107	FOODEEG_Images\0915.jpg	YN	Right	No	0.745614199999181	0	410566	252
803.947265625	0.745614199999181	decision	choicePhaseStart	2	90	30	foodImage.107	FOODEEG_Images\0915.jpg	YN	Right	No	0.745614199999181	0	411622	253
804.685546875	0	decision	response	2	90	30	foodImage.107	FOODEEG_Images\0915.jpg	YN	Right	No	0.745614199999181	0	412000	235
805.728515625	1	health	trialStart	2	91	31	foodImage.6	FOODEEG_Images\0113.jpg	NY	Left	No	1.13009389999934	0	412534	251
806.771484375	2	health	foodImageDisplay	2	91	31	foodImage.6	FOODEEG_Images\0113.jpg	NY	Left	No	1.13009389999934	0	413068	252
808.8359375	1.13009389999934	health	choicePhaseStart	2	91	31	foodImage.6	FOODEEG_Images\0113.jpg	NY	Left	No	1.13009389999934	0	414125	253
809.95703125	0	health	response	2	91	31	foodImage.6	FOODEEG_Images\0113.jpg	NY	Left	No	1.13009389999934	0	414699	234
811	1	decision	trialStart	2	92	32	foodImage.44	FOODEEG_Images\0459.jpg	NY	Left	No	2.04734479999934	0	415233	251
812.046875	2	decision	foodImageDisplay	2	92	32	foodImage.44	FOODEEG_Images\0459.jpg	NY	Left	No	2.04734479999934	0	415769	252
814.109375	2.04734479999934	decision	choicePhaseStart	2	92	32	foodImage.44	FOODEEG_Images\0459.jpg	NY	Left	No	2.04734479999934	0	416825	253
816.1484375	0	decision	response	2	92	32	foodImage.44	FOODEEG_Images\0459.jpg	NY	Left	No	2.04734479999934	0	417869	234
817.19140625	1	decision	trialStart	2	93	33	foodImage.85	FOODEEG_Images\0841.jpg	NY	Right	Yes	0.903346099999908	0	418403	251
818.248046875	2	decision	foodImageDisplay	2	93	33	foodImage.85	FOODEEG_Images\0841.jpg	NY	Right	Yes	0.903346099999908	0	418944	252
820.318359375	0.903346099999908	decision	choicePhaseStart	2	93	33	foodImage.85	FOODEEG_Images\0841.jpg	NY	Right	Yes	0.903346099999908	0	420004	253
821.212890625	0	decision	response	2	93	33	foodImage.85	FOODEEG_Images\0841.jpg	NY	Right	Yes	0.903346099999908	0	420462	235
822.255859375	1	taste	trialStart	2	94	34	foodImage.40	FOODEEG_Images\0373.jpg	YN	Left	Yes	0.757819399999789	0	420996	251
823.296875	2	taste	foodImageDisplay	2	94	34	foodImage.40	FOODEEG_Images\0373.jpg	YN	Left	Yes	0.757819399999789	0	421529	252
825.359375	0.757819399999789	taste	choicePhaseStart	2	94	34	foodImage.40	FOODEEG_Images\0373.jpg	YN	Left	Yes	0.757819399999789	0	422585	253
826.107421875	0	taste	response	2	94	34	foodImage.40	FOODEEG_Images\0373.jpg	YN	Left	Yes	0.757819399999789	0	422968	234
827.150390625	1	taste	trialStart	2	95	35	foodImage.26	FOODEEG_Images\0262.jpg	NY	Left	No	0.821019999999407	0	423502	251
828.19921875	2	taste	foodImageDisplay	2	95	35	foodImage.26	FOODEEG_Images\0262.jpg	NY	Left	No	0.821019999999407	0	424039	252
830.263671875	0.821019999999407	taste	choicePhaseStart	2	95	35	foodImage.26	FOODEEG_Images\0262.jpg	NY	Left	No	0.821019999999407	0	425096	253
831.076171875	0	taste	response	2	95	35	foodImage.26	FOODEEG_Images\0262.jpg	NY	Left	No	0.821019999999407	0	425512	234
832.119140625	1	health	trialStart	2	96	36	foodImage.52	FOODEEG_Images\0539.jpg	YN	Left	Yes	0.677968500000134	0	426046	251
833.1796875	2	health	foodImageDisplay	2	96	36	foodImage.52	FOODEEG_Images\0539.jpg	YN	Left	Yes	0.677968500000134	0	426589	252
835.244140625	0.677968500000134	health	choicePhaseStart	2	96	36	foodImage.52	FOODEEG_Images\0539.jpg	YN	Left	Yes	0.677968500000134	0	427646	253
835.916015625	0	health	response	2	96	36	foodImage.52	FOODEEG_Images\0539.jpg	YN	Left	Yes	0.677968500000134	0	427990	234
836.962890625	1	taste	trialStart	2	97	37	foodImage.98	FOODEEG_Images\0906.jpg	NY	Left	No	1.20370410000032	0	428526	251
838.001953125	2	taste	foodImageDisplay	2	97	37	foodImage.98	FOODEEG_Images\0906.jpg	NY	Left	No	1.20370410000032	0	429058	252
840.064453125	1.20370410000032	taste	choicePhaseStart	2	97	37	foodImage.98	FOODEEG_Images\0906.jpg	NY	Left	No	1.20370410000032	0	430114	253
841.259765625	0	taste	response	2	97	37	foodImage.98	FOODEEG_Images\0906.jpg	NY	Left	No	1.20370410000032	0	430726	234
842.302734375	1	decision	trialStart	2	98	38	foodImage.27	FOODEEG_Images\0263.jpg	NY	Left	No	0.870371200000591	0	431260	251
843.34375	2	decision	foodImageDisplay	2	98	38	foodImage.27	FOODEEG_Images\0263.jpg	NY	Left	No	0.870371200000591	0	431793	252
845.4140625	0.870371200000591	decision	choicePhaseStart	2	98	38	foodImage.27	FOODEEG_Images\0263.jpg	NY	Left	No	0.870371200000591	0	432853	253
846.275390625	0	decision	response	2	98	38	foodImage.27	FOODEEG_Images\0263.jpg	NY	Left	No	0.870371200000591	0	433294	234
847.318359375	1	decision	trialStart	2	99	39	foodImage.91	FOODEEG_Images\0896.jpg	YN	Left	Yes	0.615198000001328	0	433828	251
848.37890625	2	decision	foodImageDisplay	2	99	39	foodImage.91	FOODEEG_Images\0896.jpg	YN	Left	Yes	0.615198000001328	0	434371	252
850.4453125	0.615198000001328	decision	choicePhaseStart	2	99	39	foodImage.91	FOODEEG_Images\0896.jpg	YN	Left	Yes	0.615198000001328	0	435429	253
851.05078125	0	decision	response	2	99	39	foodImage.91	FOODEEG_Images\0896.jpg	YN	Left	Yes	0.615198000001328	0	435739	234
852.095703125	1	taste	trialStart	2	100	40	foodImage.94	FOODEEG_Images\0902.jpg	YN	Right	No	0.909526100000221	0	436274	251
853.13671875	2	taste	foodImageDisplay	2	100	40	foodImage.94	FOODEEG_Images\0902.jpg	YN	Right	No	0.909526100000221	0	436807	252
855.19921875	0.909526100000221	taste	choicePhaseStart	2	100	40	foodImage.94	FOODEEG_Images\0902.jpg	YN	Right	No	0.909526100000221	0	437863	253
856.099609375	0	taste	response	2	100	40	foodImage.94	FOODEEG_Images\0902.jpg	YN	Right	No	0.909526100000221	0	438324	235
857.142578125	1	health	trialStart	2	101	41	foodImage.101	FOODEEG_Images\0909.jpg	YN	Left	Yes	0.998266500000682	0	438858	251
858.189453125	2	health	foodImageDisplay	2	101	41	foodImage.101	FOODEEG_Images\0909.jpg	YN	Left	Yes	0.998266500000682	0	439394	252
860.25390625	0.998266500000682	health	choicePhaseStart	2	101	41	foodImage.101	FOODEEG_Images\0909.jpg	YN	Left	Yes	0.998266500000682	0	440451	253
861.2421875	0	health	response	2	101	41	foodImage.101	FOODEEG_Images\0909.jpg	YN	Left	Yes	0.998266500000682	0	440957	234
862.28515625	1	taste	trialStart	2	102	42	foodImage.43	FOODEEG_Images\0445.jpg	NY	Right	Yes	1.63314130000072	0	441491	251
863.36328125	2	taste	foodImageDisplay	2	102	42	foodImage.43	FOODEEG_Images\0445.jpg	NY	Right	Yes	1.63314130000072	0	442043	252
865.431640625	1.63314130000072	taste	choicePhaseStart	2	102	42	foodImage.43	FOODEEG_Images\0445.jpg	NY	Right	Yes	1.63314130000072	0	443102	253
867.05859375	0	taste	response	2	102	42	foodImage.43	FOODEEG_Images\0445.jpg	NY	Right	Yes	1.63314130000072	0	443935	235
868.1015625	1	health	trialStart	2	103	43	foodImage.89	FOODEEG_Images\0881.jpg	YN	Left	Yes	0.569659700000557	0	444469	251
869.158203125	2	health	foodImageDisplay	2	103	43	foodImage.89	FOODEEG_Images\0881.jpg	YN	Left	Yes	0.569659700000557	0	445010	252
871.22265625	0.569659700000557	health	choicePhaseStart	2	103	43	foodImage.89	FOODEEG_Images\0881.jpg	YN	Left	Yes	0.569659700000557	0	446067	253
871.787109375	0	health	response	2	103	43	foodImage.89	FOODEEG_Images\0881.jpg	YN	Left	Yes	0.569659700000557	0	446356	234
872.830078125	1	decision	trialStart	2	104	44	foodImage.73	FOODEEG_Images\0717.jpg	YN	Left	Yes	1.01868689999901	0	446890	251
873.888671875	2	decision	foodImageDisplay	2	104	44	foodImage.73	FOODEEG_Images\0717.jpg	YN	Left	Yes	1.01868689999901	0	447432	252
875.953125	1.01868689999901	decision	choicePhaseStart	2	104	44	foodImage.73	FOODEEG_Images\0717.jpg	YN	Left	Yes	1.01868689999901	0	448489	253
876.962890625	0	decision	response	2	104	44	foodImage.73	FOODEEG_Images\0717.jpg	YN	Left	Yes	1.01868689999901	0	449006	234
878.009765625	1	taste	trialStart	2	105	45	foodImage.112	FOODEEG_Images\0920.jpg	NY	Left	No	0.815846299999976	0	449542	251
879.05078125	2	taste	foodImageDisplay	2	105	45	foodImage.112	FOODEEG_Images\0920.jpg	NY	Left	No	0.815846299999976	0	450075	252
881.115234375	0.815846299999976	taste	choicePhaseStart	2	105	45	foodImage.112	FOODEEG_Images\0920.jpg	NY	Left	No	0.815846299999976	0	451132	253
881.921875	0	taste	response	2	105	45	foodImage.112	FOODEEG_Images\0920.jpg	NY	Left	No	0.815846299999976	0	451545	234
882.96484375	1	decision	trialStart	2	106	46	foodImage.8	FOODEEG_Images\0136.jpg	NY	Left	No	0.923930099999779	0	452079	251
884.005859375	2	decision	foodImageDisplay	2	106	46	foodImage.8	FOODEEG_Images\0136.jpg	NY	Left	No	0.923930099999779	0	452612	252
886.0703125	0.923930099999779	decision	choicePhaseStart	2	106	46	foodImage.8	FOODEEG_Images\0136.jpg	NY	Left	No	0.923930099999779	0	453669	253
886.986328125	0	decision	response	2	106	46	foodImage.8	FOODEEG_Images\0136.jpg	NY	Left	No	0.923930099999779	0	454138	234
888.029296875	1	health	trialStart	2	107	47	foodImage.62	FOODEEG_Images\0644.jpg	NY	Right	Yes	1.00925409999945	0	454672	251
889.08984375	2	health	foodImageDisplay	2	107	47	foodImage.62	FOODEEG_Images\0644.jpg	NY	Right	Yes	1.00925409999945	0	455215	252
891.154296875	1.00925409999945	health	choicePhaseStart	2	107	47	foodImage.62	FOODEEG_Images\0644.jpg	NY	Right	Yes	1.00925409999945	0	456272	253
892.154296875	0	health	response	2	107	47	foodImage.62	FOODEEG_Images\0644.jpg	NY	Right	Yes	1.00925409999945	0	456784	235
893.1953125	1	taste	trialStart	2	108	48	foodImage.95	FOODEEG_Images\0903.jpg	YN	Left	Yes	0.853639299999486	0	457317	251
894.234375	2	taste	foodImageDisplay	2	108	48	foodImage.95	FOODEEG_Images\0903.jpg	YN	Left	Yes	0.853639299999486	0	457849	252
896.296875	0.853639299999486	taste	choicePhaseStart	2	108	48	foodImage.95	FOODEEG_Images\0903.jpg	YN	Left	Yes	0.853639299999486	0	458905	253
897.14453125	0	taste	response	2	108	48	foodImage.95	FOODEEG_Images\0903.jpg	YN	Left	Yes	0.853639299999486	0	459339	234
898.1875	1	decision	trialStart	2	109	49	foodImage.41	FOODEEG_Images\0409.jpg	YN	Right	No	0.847161400000914	0	459873	251
899.236328125	2	decision	foodImageDisplay	2	109	49	foodImage.41	FOODEEG_Images\0409.jpg	YN	Right	No	0.847161400000914	0	460410	252
901.298828125	0.847161400000914	decision	choicePhaseStart	2	109	49	foodImage.41	FOODEEG_Images\0409.jpg	YN	Right	No	0.847161400000914	0	461466	253
902.13671875	0	decision	response	2	109	49	foodImage.41	FOODEEG_Images\0409.jpg	YN	Right	No	0.847161400000914	0	461895	235
903.1796875	1	decision	trialStart	2	110	50	foodImage.88	FOODEEG_Images\0878.jpg	YN	Left	Yes	1.22092800000064	0	462429	251
904.23828125	2	decision	foodImageDisplay	2	110	50	foodImage.88	FOODEEG_Images\0878.jpg	YN	Left	Yes	1.22092800000064	0	462971	252
906.306640625	1.22092800000064	decision	choicePhaseStart	2	110	50	foodImage.88	FOODEEG_Images\0878.jpg	YN	Left	Yes	1.22092800000064	0	464030	253
907.521484375	0	decision	response	2	110	50	foodImage.88	FOODEEG_Images\0878.jpg	YN	Left	Yes	1.22092800000064	0	464652	234
908.5703125	1	taste	trialStart	2	111	51	foodImage.77	FOODEEG_Images\0771.jpg	NY	Right	Yes	0.947917600000437	0	465189	251
909.615234375	2	taste	foodImageDisplay	2	111	51	foodImage.77	FOODEEG_Images\0771.jpg	NY	Right	Yes	0.947917600000437	0	465724	252
911.677734375	0.947917600000437	taste	choicePhaseStart	2	111	51	foodImage.77	FOODEEG_Images\0771.jpg	NY	Right	Yes	0.947917600000437	0	466780	253
912.6171875	0	taste	response	2	111	51	foodImage.77	FOODEEG_Images\0771.jpg	NY	Right	Yes	0.947917600000437	0	467261	235
913.66015625	1	taste	trialStart	2	112	52	foodImage.69	FOODEEG_Images\0693.jpg	YN	Left	Yes	0.652636400000119	0	467795	251
914.70703125	2	taste	foodImageDisplay	2	112	52	foodImage.69	FOODEEG_Images\0693.jpg	YN	Left	Yes	0.652636400000119	0	468331	252
916.771484375	0.652636400000119	taste	choicePhaseStart	2	112	52	foodImage.69	FOODEEG_Images\0693.jpg	YN	Left	Yes	0.652636400000119	0	469388	253
917.416015625	0	taste	response	2	112	52	foodImage.69	FOODEEG_Images\0693.jpg	YN	Left	Yes	0.652636400000119	0	469718	234
918.458984375	1	decision	trialStart	2	113	53	foodImage.95	FOODEEG_Images\0903.jpg	NY	Right	Yes	0.543626099999528	0	470252	251
919.5	2	decision	foodImageDisplay	2	113	53	foodImage.95	FOODEEG_Images\0903.jpg	NY	Right	Yes	0.543626099999528	0	470785	252
921.5625	0.543626099999528	decision	choicePhaseStart	2	113	53	foodImage.95	FOODEEG_Images\0903.jpg	NY	Right	Yes	0.543626099999528	0	471841	253
922.095703125	0	decision	response	2	113	53	foodImage.95	FOODEEG_Images\0903.jpg	NY	Right	Yes	0.543626099999528	0	472114	235
923.138671875	1	taste	trialStart	2	114	54	foodImage.76	FOODEEG_Images\0766.jpg	YN	Left	Yes	1.11706650000087	0	472648	251
924.18359375	2	taste	foodImageDisplay	2	114	54	foodImage.76	FOODEEG_Images\0766.jpg	YN	Left	Yes	1.11706650000087	0	473183	252
926.251953125	1.11706650000087	taste	choicePhaseStart	2	114	54	foodImage.76	FOODEEG_Images\0766.jpg	YN	Left	Yes	1.11706650000087	0	474242	253
927.359375	0	taste	response	2	114	54	foodImage.76	FOODEEG_Images\0766.jpg	YN	Left	Yes	1.11706650000087	0	474809	234
928.404296875	1	health	trialStart	2	115	55	foodImage.116	FOODEEG_Images\0924.jpg	NY	Left	No	1.07720739999968	0	475344	251
929.443359375	2	health	foodImageDisplay	2	115	55	foodImage.116	FOODEEG_Images\0924.jpg	NY	Left	No	1.07720739999968	0	475876	252
931.505859375	1.07720739999968	health	choicePhaseStart	2	115	55	foodImage.116	FOODEEG_Images\0924.jpg	NY	Left	No	1.07720739999968	0	476932	253
932.576171875	0	health	response	2	115	55	foodImage.116	FOODEEG_Images\0924.jpg	NY	Left	No	1.07720739999968	0	477480	234
933.625	1	taste	trialStart	2	116	56	foodImage.31	FOODEEG_Images\0294.jpg	YN	Left	Yes	0.860519100000602	0	478017	251
934.669921875	2	taste	foodImageDisplay	2	116	56	foodImage.31	FOODEEG_Images\0294.jpg	YN	Left	Yes	0.860519100000602	0	478552	252
936.73828125	0.860519100000602	taste	choicePhaseStart	2	116	56	foodImage.31	FOODEEG_Images\0294.jpg	YN	Left	Yes	0.860519100000602	0	479611	253
937.591796875	0	taste	response	2	116	56	foodImage.31	FOODEEG_Images\0294.jpg	YN	Left	Yes	0.860519100000602	0	480048	234
938.634765625	1	health	trialStart	2	117	57	foodImage.20	FOODEEG_Images\0226.jpg	NY	Right	Yes	1.24430299999949	0	480582	251
939.67578125	2	health	foodImageDisplay	2	117	57	foodImage.20	FOODEEG_Images\0226.jpg	NY	Right	Yes	1.24430299999949	0	481115	252
941.740234375	1.24430299999949	health	choicePhaseStart	2	117	57	foodImage.20	FOODEEG_Images\0226.jpg	NY	Right	Yes	1.24430299999949	0	482172	253
942.974609375	0	health	response	2	117	57	foodImage.20	FOODEEG_Images\0226.jpg	NY	Right	Yes	1.24430299999949	0	482804	235
944.021484375	1	health	trialStart	2	118	58	foodImage.21	FOODEEG_Images\0234.jpg	YN	Left	Yes	0.687759599999481	0	483340	251
945.080078125	2	health	foodImageDisplay	2	118	58	foodImage.21	FOODEEG_Images\0234.jpg	YN	Left	Yes	0.687759599999481	0	483882	252
947.14453125	0.687759599999481	health	choicePhaseStart	2	118	58	foodImage.21	FOODEEG_Images\0234.jpg	YN	Left	Yes	0.687759599999481	0	484939	253
947.82421875	0	health	response	2	118	58	foodImage.21	FOODEEG_Images\0234.jpg	YN	Left	Yes	0.687759599999481	0	485287	234
948.865234375	1	health	trialStart	2	119	59	foodImage.85	FOODEEG_Images\0841.jpg	NY	Left	No	0.89344500000152	0	485820	251
949.923828125	2	health	foodImageDisplay	2	119	59	foodImage.85	FOODEEG_Images\0841.jpg	NY	Left	No	0.89344500000152	0	486362	252
951.9921875	0.89344500000152	health	choicePhaseStart	2	119	59	foodImage.85	FOODEEG_Images\0841.jpg	NY	Left	No	0.89344500000152	0	487421	253
952.87890625	0	health	response	2	119	59	foodImage.85	FOODEEG_Images\0841.jpg	NY	Left	No	0.89344500000152	0	487875	234
953.921875	1	taste	trialStart	2	120	60	foodImage.75	FOODEEG_Images\0763.jpg	NY	Left	No	1.11756849999983	0	488409	251
954.966796875	2	taste	foodImageDisplay	2	120	60	foodImage.75	FOODEEG_Images\0763.jpg	NY	Left	No	1.11756849999983	0	488944	252
957.03515625	1.11756849999983	taste	choicePhaseStart	2	120	60	foodImage.75	FOODEEG_Images\0763.jpg	NY	Left	No	1.11756849999983	0	490003	253
958.142578125	0	taste	response	2	120	60	foodImage.75	FOODEEG_Images\0763.jpg	NY	Left	No	1.11756849999983	0	490570	234
960.1875	34.228515625	n/a	blockEnd	n/a	n/a	n/a	n/a	n/a	n/a	n/a	n/a	n/a	n/a	491617	254
994.416015625	2	n/a	blockStart	3	n/a	n/a	n/a	n/a	n/a	n/a	n/a	n/a	n/a	509142	250
996.453125	1	health	trialStart	3	121	1	foodImage.57	FOODEEG_Images\0587.jpg	NY	Right	Yes	1.27745330000107	0	510185	251
997.498046875	2	health	foodImageDisplay	3	121	1	foodImage.57	FOODEEG_Images\0587.jpg	NY	Right	Yes	1.27745330000107	0	510720	252
999.560546875	1.27745330000107	health	choicePhaseStart	3	121	1	foodImage.57	FOODEEG_Images\0587.jpg	NY	Right	Yes	1.27745330000107	0	511776	253
1000.830078125	0	health	response	3	121	1	foodImage.57	FOODEEG_Images\0587.jpg	NY	Right	Yes	1.27745330000107	0	512426	235
1001.875	1	decision	trialStart	3	122	2	foodImage.15	FOODEEG_Images\0189.jpg	YN	Left	Yes	1.22729439999966	0	512961	251
1002.931640625	2	decision	foodImageDisplay	3	122	2	foodImage.15	FOODEEG_Images\0189.jpg	YN	Left	Yes	1.22729439999966	0	513502	252
1004.994140625	1.22729439999966	decision	choicePhaseStart	3	122	2	foodImage.15	FOODEEG_Images\0189.jpg	YN	Left	Yes	1.22729439999966	0	514558	253
1006.212890625	0	decision	response	3	122	2	foodImage.15	FOODEEG_Images\0189.jpg	YN	Left	Yes	1.22729439999966	0	515182	234
1007.26171875	1	health	trialStart	3	123	3	foodImage.11	FOODEEG_Images\0180.jpg	YN	Left	Yes	0.677897599998687	0	515719	251
1008.3046875	2	health	foodImageDisplay	3	123	3	foodImage.11	FOODEEG_Images\0180.jpg	YN	Left	Yes	0.677897599998687	0	516253	252
1010.3671875	0.677897599998687	health	choicePhaseStart	3	123	3	foodImage.11	FOODEEG_Images\0180.jpg	YN	Left	Yes	0.677897599998687	0	517309	253
1011.037109375	0	health	response	3	123	3	foodImage.11	FOODEEG_Images\0180.jpg	YN	Left	Yes	0.677897599998687	0	517652	234
1012.080078125	1	taste	trialStart	3	124	4	foodImage.62	FOODEEG_Images\0644.jpg	NY	Right	Yes	1.52750840000044	0	518186	251
1013.138671875	2	taste	foodImageDisplay	3	124	4	foodImage.62	FOODEEG_Images\0644.jpg	NY	Right	Yes	1.52750840000044	0	518728	252
1015.205078125	1.52750840000044	taste	choicePhaseStart	3	124	4	foodImage.62	FOODEEG_Images\0644.jpg	NY	Right	Yes	1.52750840000044	0	519786	253
1016.724609375	0	taste	response	3	124	4	foodImage.62	FOODEEG_Images\0644.jpg	NY	Right	Yes	1.52750840000044	0	520564	235
1017.767578125	1	taste	trialStart	3	125	5	foodImage.1	FOODEEG_Images\0004.jpg	NY	Right	Yes	0.588980200000151	0	521098	251
1018.80859375	2	taste	foodImageDisplay	3	125	5	foodImage.1	FOODEEG_Images\0004.jpg	NY	Right	Yes	0.588980200000151	0	521631	252
1020.873046875	0.588980200000151	taste	choicePhaseStart	3	125	5	foodImage.1	FOODEEG_Images\0004.jpg	NY	Right	Yes	0.588980200000151	0	522688	253
1021.453125	0	taste	response	3	125	5	foodImage.1	FOODEEG_Images\0004.jpg	NY	Right	Yes	0.588980200000151	0	522985	235
1022.49609375	1	decision	trialStart	3	126	6	foodImage.104	FOODEEG_Images\0912.jpg	YN	Right	No	1.02272850000008	0	523519	251
1023.53515625	2	decision	foodImageDisplay	3	126	6	foodImage.104	FOODEEG_Images\0912.jpg	YN	Right	No	1.02272850000008	0	524051	252
1025.59765625	1.02272850000008	decision	choicePhaseStart	3	126	6	foodImage.104	FOODEEG_Images\0912.jpg	YN	Right	No	1.02272850000008	0	525107	253
1026.61328125	0	decision	response	3	126	6	foodImage.104	FOODEEG_Images\0912.jpg	YN	Right	No	1.02272850000008	0	525627	235
1027.654296875	1	taste	trialStart	3	127	7	foodImage.73	FOODEEG_Images\0717.jpg	NY	Right	Yes	0.928565899999739	0	526160	251
1028.71484375	2	taste	foodImageDisplay	3	127	7	foodImage.73	FOODEEG_Images\0717.jpg	NY	Right	Yes	0.928565899999739	0	526703	252
1030.77734375	0.928565899999739	taste	choicePhaseStart	3	127	7	foodImage.73	FOODEEG_Images\0717.jpg	NY	Right	Yes	0.928565899999739	0	527759	253
1031.69921875	0	taste	response	3	127	7	foodImage.73	FOODEEG_Images\0717.jpg	NY	Right	Yes	0.928565899999739	0	528231	235
1032.7421875	1	taste	trialStart	3	128	8	foodImage.97	FOODEEG_Images\0905.jpg	YN	Left	Yes	1.26292310000099	0	528765	251
1033.783203125	2	taste	foodImageDisplay	3	128	8	foodImage.97	FOODEEG_Images\0905.jpg	YN	Left	Yes	1.26292310000099	0	529298	252
1035.8515625	1.26292310000099	taste	choicePhaseStart	3	128	8	foodImage.97	FOODEEG_Images\0905.jpg	YN	Left	Yes	1.26292310000099	0	530357	253
1037.107421875	0	taste	response	3	128	8	foodImage.97	FOODEEG_Images\0905.jpg	YN	Left	Yes	1.26292310000099	0	531000	234
1038.150390625	1	decision	trialStart	3	129	9	foodImage.55	FOODEEG_Images\0567.jpg	YN	Left	Yes	0.609454499999629	0	531534	251
1039.2109375	2	decision	foodImageDisplay	3	129	9	foodImage.55	FOODEEG_Images\0567.jpg	YN	Left	Yes	0.609454499999629	0	532077	252
1041.2734375	0.609454499999629	decision	choicePhaseStart	3	129	9	foodImage.55	FOODEEG_Images\0567.jpg	YN	Left	Yes	0.609454499999629	0	533133	253
1041.875	0	decision	response	3	129	9	foodImage.55	FOODEEG_Images\0567.jpg	YN	Left	Yes	0.609454499999629	0	533441	234
1042.91796875	1	health	trialStart	3	130	10	foodImage.88	FOODEEG_Images\0878.jpg	YN	Left	Yes	0.685256999999183	0	533975	251
1043.974609375	2	health	foodImageDisplay	3	130	10	foodImage.88	FOODEEG_Images\0878.jpg	YN	Left	Yes	0.685256999999183	0	534516	252
1046.0390625	0.685256999999183	health	choicePhaseStart	3	130	10	foodImage.88	FOODEEG_Images\0878.jpg	YN	Left	Yes	0.685256999999183	0	535573	253
1046.71484375	0	health	response	3	130	10	foodImage.88	FOODEEG_Images\0878.jpg	YN	Left	Yes	0.685256999999183	0	535919	234
1047.7578125	1	health	trialStart	3	131	11	foodImage.43	FOODEEG_Images\0445.jpg	YN	Left	Yes	0.444084700000531	0	536453	251
1048.81640625	2	health	foodImageDisplay	3	131	11	foodImage.43	FOODEEG_Images\0445.jpg	YN	Left	Yes	0.444084700000531	0	536995	252
1050.880859375	0.444084700000531	health	choicePhaseStart	3	131	11	foodImage.43	FOODEEG_Images\0445.jpg	YN	Left	Yes	0.444084700000531	0	538052	253
1051.314453125	0	health	response	3	131	11	foodImage.43	FOODEEG_Images\0445.jpg	YN	Left	Yes	0.444084700000531	0	538274	234
1052.388671875	1	health	trialStart	3	132	12	foodImage.18	FOODEEG_Images\0202.jpg	YN	Left	Yes	0.600547800000641	0	538824	251
1053.447265625	2	health	foodImageDisplay	3	132	12	foodImage.18	FOODEEG_Images\0202.jpg	YN	Left	Yes	0.600547800000641	0	539366	252
1055.515625	0.600547800000641	health	choicePhaseStart	3	132	12	foodImage.18	FOODEEG_Images\0202.jpg	YN	Left	Yes	0.600547800000641	0	540425	253
1056.107421875	0	health	response	3	132	12	foodImage.18	FOODEEG_Images\0202.jpg	YN	Left	Yes	0.600547800000641	0	540728	234
1057.150390625	1	health	trialStart	3	133	13	foodImage.120	FOODEEG_Images\0928.jpg	NY	Left	No	1.26135649999924	0	541262	251
1058.19140625	2	health	foodImageDisplay	3	133	13	foodImage.120	FOODEEG_Images\0928.jpg	NY	Left	No	1.26135649999924	0	541795	252
1060.25390625	1.26135649999924	health	choicePhaseStart	3	133	13	foodImage.120	FOODEEG_Images\0928.jpg	NY	Left	No	1.26135649999924	0	542851	253
1061.5078125	0	health	response	3	133	13	foodImage.120	FOODEEG_Images\0928.jpg	NY	Left	No	1.26135649999924	0	543493	234
1062.552734375	1	health	trialStart	3	134	14	foodImage.36	FOODEEG_Images\0352.jpg	YN	Left	Yes	0.777642999999443	0	544028	251
1063.611328125	2	health	foodImageDisplay	3	134	14	foodImage.36	FOODEEG_Images\0352.jpg	YN	Left	Yes	0.777642999999443	0	544570	252
1065.673828125	0.777642999999443	health	choicePhaseStart	3	134	14	foodImage.36	FOODEEG_Images\0352.jpg	YN	Left	Yes	0.777642999999443	0	545626	253
1066.443359375	0	health	response	3	134	14	foodImage.36	FOODEEG_Images\0352.jpg	YN	Left	Yes	0.777642999999443	0	546020	234
1067.486328125	1	decision	trialStart	3	135	15	foodImage.29	FOODEEG_Images\0278.jpg	YN	Right	No	1.22710610000104	0	546554	251
1068.529296875	2	decision	foodImageDisplay	3	135	15	foodImage.29	FOODEEG_Images\0278.jpg	YN	Right	No	1.22710610000104	0	547088	252
1070.591796875	1.22710610000104	decision	choicePhaseStart	3	135	15	foodImage.29	FOODEEG_Images\0278.jpg	YN	Right	No	1.22710610000104	0	548144	253
1071.810546875	0	decision	response	3	135	15	foodImage.29	FOODEEG_Images\0278.jpg	YN	Right	No	1.22710610000104	0	548768	235
1072.85546875	1	decision	trialStart	3	136	16	foodImage.114	FOODEEG_Images\0922.jpg	NY	Right	Yes	0.773897000000943	0	549303	251
1073.90234375	2	decision	foodImageDisplay	3	136	16	foodImage.114	FOODEEG_Images\0922.jpg	NY	Right	Yes	0.773897000000943	0	549839	252
1075.966796875	0.773897000000943	decision	choicePhaseStart	3	136	16	foodImage.114	FOODEEG_Images\0922.jpg	NY	Right	Yes	0.773897000000943	0	550896	253
1076.73046875	0	decision	response	3	136	16	foodImage.114	FOODEEG_Images\0922.jpg	NY	Right	Yes	0.773897000000943	0	551287	235
1077.7734375	1	taste	trialStart	3	137	17	foodImage.21	FOODEEG_Images\0234.jpg	YN	Left	Yes	0.65863630000058	0	551821	251
1078.833984375	2	taste	foodImageDisplay	3	137	17	foodImage.21	FOODEEG_Images\0234.jpg	YN	Left	Yes	0.65863630000058	0	552364	252
1080.896484375	0.65863630000058	taste	choicePhaseStart	3	137	17	foodImage.21	FOODEEG_Images\0234.jpg	YN	Left	Yes	0.65863630000058	0	553420	253
1081.546875	0	taste	response	3	137	17	foodImage.21	FOODEEG_Images\0234.jpg	YN	Left	Yes	0.65863630000058	0	553753	234
1082.595703125	1	health	trialStart	3	138	18	foodImage.32	FOODEEG_Images\0319.jpg	YN	Left	Yes	0.899992099999508	0	554290	251
1083.638671875	2	health	foodImageDisplay	3	138	18	foodImage.32	FOODEEG_Images\0319.jpg	YN	Left	Yes	0.899992099999508	0	554824	252
1085.703125	0.899992099999508	health	choicePhaseStart	3	138	18	foodImage.32	FOODEEG_Images\0319.jpg	YN	Left	Yes	0.899992099999508	0	555881	253
1086.59375	0	health	response	3	138	18	foodImage.32	FOODEEG_Images\0319.jpg	YN	Left	Yes	0.899992099999508	0	556337	234
1087.642578125	1	taste	trialStart	3	139	19	foodImage.85	FOODEEG_Images\0841.jpg	YN	Left	Yes	0.67093449999993	0	556874	251
1088.69921875	2	taste	foodImageDisplay	3	139	19	foodImage.85	FOODEEG_Images\0841.jpg	YN	Left	Yes	0.67093449999993	0	557415	252
1090.763671875	0.67093449999993	taste	choicePhaseStart	3	139	19	foodImage.85	FOODEEG_Images\0841.jpg	YN	Left	Yes	0.67093449999993	0	558472	253
1091.42578125	0	taste	response	3	139	19	foodImage.85	FOODEEG_Images\0841.jpg	YN	Left	Yes	0.67093449999993	0	558811	234
1092.466796875	1	taste	trialStart	3	140	20	foodImage.17	FOODEEG_Images\0199.jpg	YN	Left	Yes	0.634809699999096	0	559344	251
1093.513671875	2	taste	foodImageDisplay	3	140	20	foodImage.17	FOODEEG_Images\0199.jpg	YN	Left	Yes	0.634809699999096	0	559880	252
1095.576171875	0.634809699999096	taste	choicePhaseStart	3	140	20	foodImage.17	FOODEEG_Images\0199.jpg	YN	Left	Yes	0.634809699999096	0	560936	253
1096.201171875	0	taste	response	3	140	20	foodImage.17	FOODEEG_Images\0199.jpg	YN	Left	Yes	0.634809699999096	0	561256	234
1097.248046875	1	health	trialStart	3	141	21	foodImage.112	FOODEEG_Images\0920.jpg	YN	Right	No	0.68441520000124	0	561792	251
1098.28515625	2	health	foodImageDisplay	3	141	21	foodImage.112	FOODEEG_Images\0920.jpg	YN	Right	No	0.68441520000124	0	562323	252
1100.349609375	0.68441520000124	health	choicePhaseStart	3	141	21	foodImage.112	FOODEEG_Images\0920.jpg	YN	Right	No	0.68441520000124	0	563380	253
1101.025390625	0	health	response	3	141	21	foodImage.112	FOODEEG_Images\0920.jpg	YN	Right	No	0.68441520000124	0	563726	235
1102.068359375	1	taste	trialStart	3	142	22	foodImage.101	FOODEEG_Images\0909.jpg	YN	Right	No	1.03198580000026	0	564260	251
1103.111328125	2	taste	foodImageDisplay	3	142	22	foodImage.101	FOODEEG_Images\0909.jpg	YN	Right	No	1.03198580000026	0	564794	252
1105.177734375	1.03198580000026	taste	choicePhaseStart	3	142	22	foodImage.101	FOODEEG_Images\0909.jpg	YN	Right	No	1.03198580000026	0	565852	253
1106.201171875	0	taste	response	3	142	22	foodImage.101	FOODEEG_Images\0909.jpg	YN	Right	No	1.03198580000026	0	566376	235
1107.244140625	1	decision	trialStart	3	143	23	foodImage.93	FOODEEG_Images\0901.jpg	NY	Left	No	0.984075700000176	0	566910	251
1108.283203125	2	decision	foodImageDisplay	3	143	23	foodImage.93	FOODEEG_Images\0901.jpg	NY	Left	No	0.984075700000176	0	567442	252
1110.345703125	0.984075700000176	decision	choicePhaseStart	3	143	23	foodImage.93	FOODEEG_Images\0901.jpg	NY	Left	No	0.984075700000176	0	568498	253
1111.3203125	0	decision	response	3	143	23	foodImage.93	FOODEEG_Images\0901.jpg	NY	Left	No	0.984075700000176	0	568997	234
1112.36328125	1	health	trialStart	3	144	24	foodImage.87	FOODEEG_Images\0873.jpg	YN	Left	Yes	0.663998100000754	0	569531	251
1113.439453125	2	health	foodImageDisplay	3	144	24	foodImage.87	FOODEEG_Images\0873.jpg	YN	Left	Yes	0.663998100000754	0	570082	252
1115.50390625	0.663998100000754	health	choicePhaseStart	3	144	24	foodImage.87	FOODEEG_Images\0873.jpg	YN	Left	Yes	0.663998100000754	0	571139	253
1116.16015625	0	health	response	3	144	24	foodImage.87	FOODEEG_Images\0873.jpg	YN	Left	Yes	0.663998100000754	0	571475	234
1117.203125	1	decision	trialStart	3	145	25	foodImage.25	FOODEEG_Images\0261.jpg	NY	Right	Yes	0.881054999999833	0	572009	251
1118.24609375	2	decision	foodImageDisplay	3	145	25	foodImage.25	FOODEEG_Images\0261.jpg	NY	Right	Yes	0.881054999999833	0	572543	252
1120.310546875	0.881054999999833	decision	choicePhaseStart	3	145	25	foodImage.25	FOODEEG_Images\0261.jpg	NY	Right	Yes	0.881054999999833	0	573600	253
1121.18359375	0	decision	response	3	145	25	foodImage.25	FOODEEG_Images\0261.jpg	NY	Right	Yes	0.881054999999833	0	574047	235
1122.23046875	1	taste	trialStart	3	146	26	foodImage.78	FOODEEG_Images\0787.jpg	NY	Left	No	0.719223400001283	0	574583	251
1123.2734375	2	taste	foodImageDisplay	3	146	26	foodImage.78	FOODEEG_Images\0787.jpg	NY	Left	No	0.719223400001283	0	575117	252
1125.337890625	0.719223400001283	taste	choicePhaseStart	3	146	26	foodImage.78	FOODEEG_Images\0787.jpg	NY	Left	No	0.719223400001283	0	576174	253
1126.048828125	0	taste	response	3	146	26	foodImage.78	FOODEEG_Images\0787.jpg	NY	Left	No	0.719223400001283	0	576538	234
1127.091796875	1	health	trialStart	3	147	27	foodImage.3	FOODEEG_Images\0046.jpg	YN	Right	No	0.746148300000641	0	577072	251
1128.1328125	2	health	foodImageDisplay	3	147	27	foodImage.3	FOODEEG_Images\0046.jpg	YN	Right	No	0.746148300000641	0	577605	252
1130.1953125	0.746148300000641	health	choicePhaseStart	3	147	27	foodImage.3	FOODEEG_Images\0046.jpg	YN	Right	No	0.746148300000641	0	578661	253
1130.935546875	0	health	response	3	147	27	foodImage.3	FOODEEG_Images\0046.jpg	YN	Right	No	0.746148300000641	0	579040	235
1131.978515625	1	decision	trialStart	3	148	28	foodImage.6	FOODEEG_Images\0113.jpg	YN	Left	Yes	0.752300100000866	0	579574	251
1133.021484375	2	decision	foodImageDisplay	3	148	28	foodImage.6	FOODEEG_Images\0113.jpg	YN	Left	Yes	0.752300100000866	0	580108	252
1135.087890625	0.752300100000866	decision	choicePhaseStart	3	148	28	foodImage.6	FOODEEG_Images\0113.jpg	YN	Left	Yes	0.752300100000866	0	581166	253
1135.83203125	0	decision	response	3	148	28	foodImage.6	FOODEEG_Images\0113.jpg	YN	Left	Yes	0.752300100000866	0	581547	234
1136.880859375	1	decision	trialStart	3	149	29	foodImage.66	FOODEEG_Images\0676.jpg	YN	Left	Yes	0.463504600000306	0	582084	251
1137.921875	2	decision	foodImageDisplay	3	149	29	foodImage.66	FOODEEG_Images\0676.jpg	YN	Left	Yes	0.463504600000306	0	582617	252
1139.986328125	0.463504600000306	decision	choicePhaseStart	3	149	29	foodImage.66	FOODEEG_Images\0676.jpg	YN	Left	Yes	0.463504600000306	0	583674	253
1140.439453125	0	decision	response	3	149	29	foodImage.66	FOODEEG_Images\0676.jpg	YN	Left	Yes	0.463504600000306	0	583906	234
1141.482421875	1	decision	trialStart	3	150	30	foodImage.31	FOODEEG_Images\0294.jpg	NY	Left	No	0.456759299999248	0	584440	251
1142.5234375	2	decision	foodImageDisplay	3	150	30	foodImage.31	FOODEEG_Images\0294.jpg	NY	Left	No	0.456759299999248	0	584973	252
1144.591796875	0.456759299999248	decision	choicePhaseStart	3	150	30	foodImage.31	FOODEEG_Images\0294.jpg	NY	Left	No	0.456759299999248	0	586032	253
1145.0390625	0	decision	response	3	150	30	foodImage.31	FOODEEG_Images\0294.jpg	NY	Left	No	0.456759299999248	0	586261	234
1146.08203125	1	taste	trialStart	3	151	31	foodImage.82	FOODEEG_Images\0805.jpg	YN	Left	Yes	0.926852099999451	0	586795	251
1147.138671875	2	taste	foodImageDisplay	3	151	31	foodImage.82	FOODEEG_Images\0805.jpg	YN	Left	Yes	0.926852099999451	0	587336	252
1149.201171875	0.926852099999451	taste	choicePhaseStart	3	151	31	foodImage.82	FOODEEG_Images\0805.jpg	YN	Left	Yes	0.926852099999451	0	588392	253
1150.119140625	0	taste	response	3	151	31	foodImage.82	FOODEEG_Images\0805.jpg	YN	Left	Yes	0.926852099999451	0	588862	234
1151.166015625	1	taste	trialStart	3	152	32	foodImage.67	FOODEEG_Images\0679.jpg	NY	Right	Yes	0.899050300000454	0	589398	251
1152.22265625	2	taste	foodImageDisplay	3	152	32	foodImage.67	FOODEEG_Images\0679.jpg	NY	Right	Yes	0.899050300000454	0	589939	252
1154.28515625	0.899050300000454	taste	choicePhaseStart	3	152	32	foodImage.67	FOODEEG_Images\0679.jpg	NY	Right	Yes	0.899050300000454	0	590995	253
1155.17578125	0	taste	response	3	152	32	foodImage.67	FOODEEG_Images\0679.jpg	NY	Right	Yes	0.899050300000454	0	591451	235
1156.21875	1	health	trialStart	3	153	33	foodImage.117	FOODEEG_Images\0925.jpg	YN	Left	Yes	1.02465980000125	0	591985	251
1157.2578125	2	health	foodImageDisplay	3	153	33	foodImage.117	FOODEEG_Images\0925.jpg	YN	Left	Yes	1.02465980000125	0	592517	252
1159.326171875	1.02465980000125	health	choicePhaseStart	3	153	33	foodImage.117	FOODEEG_Images\0925.jpg	YN	Left	Yes	1.02465980000125	0	593576	253
1160.34375	0	health	response	3	153	33	foodImage.117	FOODEEG_Images\0925.jpg	YN	Left	Yes	1.02465980000125	0	594097	234
1161.38671875	1	health	trialStart	3	154	34	foodImage.75	FOODEEG_Images\0763.jpg	YN	Left	Yes	0.59137709999959	0	594631	251
1162.431640625	2	health	foodImageDisplay	3	154	34	foodImage.75	FOODEEG_Images\0763.jpg	YN	Left	Yes	0.59137709999959	0	595166	252
1164.494140625	0.59137709999959	health	choicePhaseStart	3	154	34	foodImage.75	FOODEEG_Images\0763.jpg	YN	Left	Yes	0.59137709999959	0	596222	253
1165.078125	0	health	response	3	154	34	foodImage.75	FOODEEG_Images\0763.jpg	YN	Left	Yes	0.59137709999959	0	596521	234
1166.12109375	1	health	trialStart	3	155	35	foodImage.115	FOODEEG_Images\0923.jpg	YN	Left	Yes	0.774244300000646	0	597055	251
1167.162109375	2	health	foodImageDisplay	3	155	35	foodImage.115	FOODEEG_Images\0923.jpg	YN	Left	Yes	0.774244300000646	0	597588	252
1169.2265625	0.774244300000646	health	choicePhaseStart	3	155	35	foodImage.115	FOODEEG_Images\0923.jpg	YN	Left	Yes	0.774244300000646	0	598645	253
1169.990234375	0	health	response	3	155	35	foodImage.115	FOODEEG_Images\0923.jpg	YN	Left	Yes	0.774244300000646	0	599036	234
1171.041015625	1	decision	trialStart	3	156	36	foodImage.59	FOODEEG_Images\0607.jpg	NY	Right	Yes	0.758937899998273	0	599574	251
1172.087890625	2	decision	foodImageDisplay	3	156	36	foodImage.59	FOODEEG_Images\0607.jpg	NY	Right	Yes	0.758937899998273	0	600110	252
1174.15234375	0.758937899998273	decision	choicePhaseStart	3	156	36	foodImage.59	FOODEEG_Images\0607.jpg	NY	Right	Yes	0.758937899998273	0	601167	253
1174.90234375	0	decision	response	3	156	36	foodImage.59	FOODEEG_Images\0607.jpg	NY	Right	Yes	0.758937899998273	0	601551	235
1175.951171875	1	decision	trialStart	3	157	37	foodImage.69	FOODEEG_Images\0693.jpg	YN	Left	Yes	1.28535639999973	0	602088	251
1176.9921875	2	decision	foodImageDisplay	3	157	37	foodImage.69	FOODEEG_Images\0693.jpg	YN	Left	Yes	1.28535639999973	0	602621	252
1179.0546875	1.28535639999973	decision	choicePhaseStart	3	157	37	foodImage.69	FOODEEG_Images\0693.jpg	YN	Left	Yes	1.28535639999973	0	603677	253
1180.333984375	0	decision	response	3	157	37	foodImage.69	FOODEEG_Images\0693.jpg	YN	Left	Yes	1.28535639999973	0	604332	234
1181.376953125	1	taste	trialStart	3	158	38	foodImage.49	FOODEEG_Images\0515.jpg	NY	Right	Yes	0.713736200001222	0	604866	251
1182.421875	2	taste	foodImageDisplay	3	158	38	foodImage.49	FOODEEG_Images\0515.jpg	NY	Right	Yes	0.713736200001222	0	605401	252
1184.486328125	0.713736200001222	taste	choicePhaseStart	3	158	38	foodImage.49	FOODEEG_Images\0515.jpg	NY	Right	Yes	0.713736200001222	0	606458	253
1185.189453125	0	taste	response	3	158	38	foodImage.49	FOODEEG_Images\0515.jpg	NY	Right	Yes	0.713736200001222	0	606818	235
1186.234375	1	health	trialStart	3	159	39	foodImage.10	FOODEEG_Images\0145.jpg	NY	Right	Yes	0.904999100001078	0	607353	251
1187.294921875	2	health	foodImageDisplay	3	159	39	foodImage.10	FOODEEG_Images\0145.jpg	NY	Right	Yes	0.904999100001078	0	607896	252
1189.357421875	0.904999100001078	health	choicePhaseStart	3	159	39	foodImage.10	FOODEEG_Images\0145.jpg	NY	Right	Yes	0.904999100001078	0	608952	253
1190.25390625	0	health	response	3	159	39	foodImage.10	FOODEEG_Images\0145.jpg	NY	Right	Yes	0.904999100001078	0	609411	235
1191.296875	1	decision	trialStart	3	160	40	foodImage.116	FOODEEG_Images\0924.jpg	YN	Right	No	0.755509399999937	0	609945	251
1192.3359375	2	decision	foodImageDisplay	3	160	40	foodImage.116	FOODEEG_Images\0924.jpg	YN	Right	No	0.755509399999937	0	610477	252
1194.40234375	0.755509399999937	decision	choicePhaseStart	3	160	40	foodImage.116	FOODEEG_Images\0924.jpg	YN	Right	No	0.755509399999937	0	611535	253
1195.150390625	0	decision	response	3	160	40	foodImage.116	FOODEEG_Images\0924.jpg	YN	Right	No	0.755509399999937	0	611918	235
1196.193359375	1	health	trialStart	3	161	41	foodImage.38	FOODEEG_Images\0365.jpg	NY	Right	Yes	0.649095699998725	0	612452	251
1197.23046875	2	health	foodImageDisplay	3	161	41	foodImage.38	FOODEEG_Images\0365.jpg	NY	Right	Yes	0.649095699998725	0	612983	252
1199.29296875	0.649095699998725	health	choicePhaseStart	3	161	41	foodImage.38	FOODEEG_Images\0365.jpg	NY	Right	Yes	0.649095699998725	0	614039	253
1199.93359375	0	health	response	3	161	41	foodImage.38	FOODEEG_Images\0365.jpg	NY	Right	Yes	0.649095699998725	0	614367	235
1200.98046875	1	decision	trialStart	3	162	42	foodImage.39	FOODEEG_Images\0367.jpg	NY	Right	Yes	0.602863100000832	0	614903	251
1202.037109375	2	decision	foodImageDisplay	3	162	42	foodImage.39	FOODEEG_Images\0367.jpg	NY	Right	Yes	0.602863100000832	0	615444	252
1204.10546875	0.602863100000832	decision	choicePhaseStart	3	162	42	foodImage.39	FOODEEG_Images\0367.jpg	NY	Right	Yes	0.602863100000832	0	616503	253
1204.701171875	0	decision	response	3	162	42	foodImage.39	FOODEEG_Images\0367.jpg	NY	Right	Yes	0.602863100000832	0	616808	235
1205.744140625	1	health	trialStart	3	163	43	foodImage.19	FOODEEG_Images\0225.jpg	NY	Right	Yes	0.769891800000551	0	617342	251
1206.7890625	2	health	foodImageDisplay	3	163	43	foodImage.19	FOODEEG_Images\0225.jpg	NY	Right	Yes	0.769891800000551	0	617877	252
1208.8515625	0.769891800000551	health	choicePhaseStart	3	163	43	foodImage.19	FOODEEG_Images\0225.jpg	NY	Right	Yes	0.769891800000551	0	618933	253
1209.61328125	0	health	response	3	163	43	foodImage.19	FOODEEG_Images\0225.jpg	NY	Right	Yes	0.769891800000551	0	619323	235
1210.65625	1	taste	trialStart	3	164	44	foodImage.86	FOODEEG_Images\0844.jpg	YN	Left	Yes	0.650656499999968	0	619857	251
1211.716796875	2	taste	foodImageDisplay	3	164	44	foodImage.86	FOODEEG_Images\0844.jpg	YN	Left	Yes	0.650656499999968	0	620400	252
1213.779296875	0.650656499999968	taste	choicePhaseStart	3	164	44	foodImage.86	FOODEEG_Images\0844.jpg	YN	Left	Yes	0.650656499999968	0	621456	253
1214.419921875	0	taste	response	3	164	44	foodImage.86	FOODEEG_Images\0844.jpg	YN	Left	Yes	0.650656499999968	0	621784	234
1215.462890625	1	taste	trialStart	3	165	45	foodImage.47	FOODEEG_Images\0488.jpg	YN	Left	Yes	0.659304500000871	0	622318	251
1216.505859375	2	taste	foodImageDisplay	3	165	45	foodImage.47	FOODEEG_Images\0488.jpg	YN	Left	Yes	0.659304500000871	0	622852	252
1218.5703125	0.659304500000871	taste	choicePhaseStart	3	165	45	foodImage.47	FOODEEG_Images\0488.jpg	YN	Left	Yes	0.659304500000871	0	623909	253
1219.220703125	0	taste	response	3	165	45	foodImage.47	FOODEEG_Images\0488.jpg	YN	Left	Yes	0.659304500000871	0	624242	234
1220.263671875	1	decision	trialStart	3	166	46	foodImage.67	FOODEEG_Images\0679.jpg	YN	Left	Yes	0.612811700000748	0	624776	251
1221.322265625	2	decision	foodImageDisplay	3	166	46	foodImage.67	FOODEEG_Images\0679.jpg	YN	Left	Yes	0.612811700000748	0	625318	252
1223.384765625	0.612811700000748	decision	choicePhaseStart	3	166	46	foodImage.67	FOODEEG_Images\0679.jpg	YN	Left	Yes	0.612811700000748	0	626374	253
1223.98828125	0	decision	response	3	166	46	foodImage.67	FOODEEG_Images\0679.jpg	YN	Left	Yes	0.612811700000748	0	626683	234
1225.03125	1	decision	trialStart	3	167	47	foodImage.7	FOODEEG_Images\0116.jpg	YN	Left	Yes	0.503011599999809	0	627217	251
1226.076171875	2	decision	foodImageDisplay	3	167	47	foodImage.7	FOODEEG_Images\0116.jpg	YN	Left	Yes	0.503011599999809	0	627752	252
1228.1484375	0.503011599999809	decision	choicePhaseStart	3	167	47	foodImage.7	FOODEEG_Images\0116.jpg	YN	Left	Yes	0.503011599999809	0	628813	253
1228.64453125	0	decision	response	3	167	47	foodImage.7	FOODEEG_Images\0116.jpg	YN	Left	Yes	0.503011599999809	0	629067	234
1229.685546875	1	decision	trialStart	3	168	48	foodImage.32	FOODEEG_Images\0319.jpg	YN	Right	No	0.546833500000503	0	629600	251
1230.73046875	2	decision	foodImageDisplay	3	168	48	foodImage.32	FOODEEG_Images\0319.jpg	YN	Right	No	0.546833500000503	0	630135	252
1232.794921875	0.546833500000503	decision	choicePhaseStart	3	168	48	foodImage.32	FOODEEG_Images\0319.jpg	YN	Right	No	0.546833500000503	0	631192	253
1233.33203125	0	decision	response	3	168	48	foodImage.32	FOODEEG_Images\0319.jpg	YN	Right	No	0.546833500000503	0	631467	235
1234.376953125	1	decision	trialStart	3	169	49	foodImage.86	FOODEEG_Images\0844.jpg	NY	Right	Yes	0.690742000000682	0	632002	251
1235.458984375	2	decision	foodImageDisplay	3	169	49	foodImage.86	FOODEEG_Images\0844.jpg	NY	Right	Yes	0.690742000000682	0	632556	252
1237.5234375	0.690742000000682	decision	choicePhaseStart	3	169	49	foodImage.86	FOODEEG_Images\0844.jpg	NY	Right	Yes	0.690742000000682	0	633613	253
1238.203125	0	decision	response	3	169	49	foodImage.86	FOODEEG_Images\0844.jpg	NY	Right	Yes	0.690742000000682	0	633961	235
1239.251953125	1	decision	trialStart	3	170	50	foodImage.9	FOODEEG_Images\0138.jpg	NY	Right	Yes	0.939180400000623	0	634498	251
1240.330078125	2	decision	foodImageDisplay	3	170	50	foodImage.9	FOODEEG_Images\0138.jpg	NY	Right	Yes	0.939180400000623	0	635050	252
1242.39453125	0.939180400000623	decision	choicePhaseStart	3	170	50	foodImage.9	FOODEEG_Images\0138.jpg	NY	Right	Yes	0.939180400000623	0	636107	253
1243.32421875	0	decision	response	3	170	50	foodImage.9	FOODEEG_Images\0138.jpg	NY	Right	Yes	0.939180400000623	0	636583	235
1244.3671875	1	taste	trialStart	3	171	51	foodImage.16	FOODEEG_Images\0196.jpg	YN	Right	No	0.848045400000046	0	637117	251
1245.42578125	2	taste	foodImageDisplay	3	171	51	foodImage.16	FOODEEG_Images\0196.jpg	YN	Right	No	0.848045400000046	0	637659	252
1247.490234375	0.848045400000046	taste	choicePhaseStart	3	171	51	foodImage.16	FOODEEG_Images\0196.jpg	YN	Right	No	0.848045400000046	0	638716	253
1248.33203125	0	taste	response	3	171	51	foodImage.16	FOODEEG_Images\0196.jpg	YN	Right	No	0.848045400000046	0	639147	235
1249.375	1	health	trialStart	3	172	52	foodImage.60	FOODEEG_Images\0614.jpg	YN	Left	Yes	0.846745800001372	0	639681	251
1250.435546875	2	health	foodImageDisplay	3	172	52	foodImage.60	FOODEEG_Images\0614.jpg	YN	Left	Yes	0.846745800001372	0	640224	252
1252.5	0.846745800001372	health	choicePhaseStart	3	172	52	foodImage.60	FOODEEG_Images\0614.jpg	YN	Left	Yes	0.846745800001372	0	641281	253
1253.33984375	0	health	response	3	172	52	foodImage.60	FOODEEG_Images\0614.jpg	YN	Left	Yes	0.846745800001372	0	641711	234
1254.388671875	1	decision	trialStart	3	173	53	foodImage.48	FOODEEG_Images\0494.jpg	YN	Left	Yes	0.837794600000052	0	642248	251
1255.4296875	2	decision	foodImageDisplay	3	173	53	foodImage.48	FOODEEG_Images\0494.jpg	YN	Left	Yes	0.837794600000052	0	642781	252
1257.4921875	0.837794600000052	decision	choicePhaseStart	3	173	53	foodImage.48	FOODEEG_Images\0494.jpg	YN	Left	Yes	0.837794600000052	0	643837	253
1258.322265625	0	decision	response	3	173	53	foodImage.48	FOODEEG_Images\0494.jpg	YN	Left	Yes	0.837794600000052	0	644262	234
1259.37109375	1	health	trialStart	3	174	54	foodImage.61	FOODEEG_Images\0640.jpg	NY	Right	Yes	0.655462799999441	0	644799	251
1260.4140625	2	health	foodImageDisplay	3	174	54	foodImage.61	FOODEEG_Images\0640.jpg	NY	Right	Yes	0.655462799999441	0	645333	252
1262.4765625	0.655462799999441	health	choicePhaseStart	3	174	54	foodImage.61	FOODEEG_Images\0640.jpg	NY	Right	Yes	0.655462799999441	0	646389	253
1263.123046875	0	health	response	3	174	54	foodImage.61	FOODEEG_Images\0640.jpg	NY	Right	Yes	0.655462799999441	0	646720	235
1264.166015625	1	decision	trialStart	3	175	55	foodImage.81	FOODEEG_Images\0797.jpg	NY	Right	Yes	1.341455400001	0	647254	251
1265.224609375	2	decision	foodImageDisplay	3	175	55	foodImage.81	FOODEEG_Images\0797.jpg	NY	Right	Yes	1.341455400001	0	647796	252
1267.287109375	1.341455400001	decision	choicePhaseStart	3	175	55	foodImage.81	FOODEEG_Images\0797.jpg	NY	Right	Yes	1.341455400001	0	648852	253
1268.619140625	0	decision	response	3	175	55	foodImage.81	FOODEEG_Images\0797.jpg	NY	Right	Yes	1.341455400001	0	649534	235
1269.662109375	1	taste	trialStart	3	176	56	foodImage.37	FOODEEG_Images\0359.jpg	NY	Left	No	0.851651399998445	0	650068	251
1270.703125	2	taste	foodImageDisplay	3	176	56	foodImage.37	FOODEEG_Images\0359.jpg	NY	Left	No	0.851651399998445	0	650601	252
1272.76953125	0.851651399998445	taste	choicePhaseStart	3	176	56	foodImage.37	FOODEEG_Images\0359.jpg	NY	Left	No	0.851651399998445	0	651659	253
1273.611328125	0	taste	response	3	176	56	foodImage.37	FOODEEG_Images\0359.jpg	NY	Left	No	0.851651399998445	0	652090	234
1274.654296875	1	health	trialStart	3	177	57	foodImage.53	FOODEEG_Images\0547.jpg	YN	Right	No	1.22230219999983	0	652624	251
1275.708984375	2	health	foodImageDisplay	3	177	57	foodImage.53	FOODEEG_Images\0547.jpg	YN	Right	No	1.22230219999983	0	653164	252
1277.7734375	1.22230219999983	health	choicePhaseStart	3	177	57	foodImage.53	FOODEEG_Images\0547.jpg	YN	Right	No	1.22230219999983	0	654221	253
1278.986328125	0	health	response	3	177	57	foodImage.53	FOODEEG_Images\0547.jpg	YN	Right	No	1.22230219999983	0	654842	235
1280.029296875	1	health	trialStart	3	178	58	foodImage.51	FOODEEG_Images\0536.jpg	NY	Left	No	1.11916740000015	0	655376	251
1281.076171875	2	health	foodImageDisplay	3	178	58	foodImage.51	FOODEEG_Images\0536.jpg	NY	Left	No	1.11916740000015	0	655912	252
1283.140625	1.11916740000015	health	choicePhaseStart	3	178	58	foodImage.51	FOODEEG_Images\0536.jpg	NY	Left	No	1.11916740000015	0	656969	253
1284.25	0	health	response	3	178	58	foodImage.51	FOODEEG_Images\0536.jpg	NY	Left	No	1.11916740000015	0	657537	234
1285.29296875	1	decision	trialStart	3	179	59	foodImage.62	FOODEEG_Images\0644.jpg	NY	Right	Yes	0.796856099999786	0	658071	251
1286.3515625	2	decision	foodImageDisplay	3	179	59	foodImage.62	FOODEEG_Images\0644.jpg	NY	Right	Yes	0.796856099999786	0	658613	252
1288.419921875	0.796856099999786	decision	choicePhaseStart	3	179	59	foodImage.62	FOODEEG_Images\0644.jpg	NY	Right	Yes	0.796856099999786	0	659672	253
1289.208984375	0	decision	response	3	179	59	foodImage.62	FOODEEG_Images\0644.jpg	NY	Right	Yes	0.796856099999786	0	660076	235
1290.2578125	1	health	trialStart	3	180	60	foodImage.27	FOODEEG_Images\0263.jpg	NY	Right	Yes	0.822528000000602	0	660613	251
1291.30078125	2	health	foodImageDisplay	3	180	60	foodImage.27	FOODEEG_Images\0263.jpg	NY	Right	Yes	0.822528000000602	0	661147	252
1293.365234375	0.822528000000602	health	choicePhaseStart	3	180	60	foodImage.27	FOODEEG_Images\0263.jpg	NY	Right	Yes	0.822528000000602	0	662204	253
1294.177734375	0	health	response	3	180	60	foodImage.27	FOODEEG_Images\0263.jpg	NY	Right	Yes	0.822528000000602	0	662620	235
1296.220703125	19.955078125	n/a	blockEnd	n/a	n/a	n/a	n/a	n/a	n/a	n/a	n/a	n/a	n/a	663666	254
1316.17578125	2	n/a	blockStart	4	n/a	n/a	n/a	n/a	n/a	n/a	n/a	n/a	n/a	673883	250
1318.2109375	1	health	trialStart	4	181	1	foodImage.28	FOODEEG_Images\0273.jpg	NY	Right	Yes	0.552717099999427	0	674925	251
1319.2578125	2	health	foodImageDisplay	4	181	1	foodImage.28	FOODEEG_Images\0273.jpg	NY	Right	Yes	0.552717099999427	0	675461	252
1321.322265625	0.552717099999427	health	choicePhaseStart	4	181	1	foodImage.28	FOODEEG_Images\0273.jpg	NY	Right	Yes	0.552717099999427	0	676518	253
1321.865234375	0	health	response	4	181	1	foodImage.28	FOODEEG_Images\0273.jpg	NY	Right	Yes	0.552717099999427	0	676796	235
1322.908203125	1	health	trialStart	4	182	2	foodImage.84	FOODEEG_Images\0830.jpg	NY	Right	Yes	0.826952199999141	0	677330	251
1323.966796875	2	health	foodImageDisplay	4	182	2	foodImage.84	FOODEEG_Images\0830.jpg	NY	Right	Yes	0.826952199999141	0	677872	252
1326.03125	0.826952199999141	health	choicePhaseStart	4	182	2	foodImage.84	FOODEEG_Images\0830.jpg	NY	Right	Yes	0.826952199999141	0	678929	253
1326.84765625	0	health	response	4	182	2	foodImage.84	FOODEEG_Images\0830.jpg	NY	Right	Yes	0.826952199999141	0	679347	235
1327.892578125	1	health	trialStart	4	183	3	foodImage.104	FOODEEG_Images\0912.jpg	NY	Left	No	1.17903900000056	0	679882	251
1328.9296875	2	health	foodImageDisplay	4	183	3	foodImage.104	FOODEEG_Images\0912.jpg	NY	Left	No	1.17903900000056	0	680413	252
1331	1.17903900000056	health	choicePhaseStart	4	183	3	foodImage.104	FOODEEG_Images\0912.jpg	NY	Left	No	1.17903900000056	0	681473	253
1332.16796875	0	health	response	4	183	3	foodImage.104	FOODEEG_Images\0912.jpg	NY	Left	No	1.17903900000056	0	682071	234
1333.212890625	1	health	trialStart	4	184	4	foodImage.47	FOODEEG_Images\0488.jpg	YN	Right	No	0.871025300000838	0	682606	251
1334.2734375	2	health	foodImageDisplay	4	184	4	foodImage.47	FOODEEG_Images\0488.jpg	YN	Right	No	0.871025300000838	0	683149	252
1336.337890625	0.871025300000838	health	choicePhaseStart	4	184	4	foodImage.47	FOODEEG_Images\0488.jpg	YN	Right	No	0.871025300000838	0	684206	253
1337.19921875	0	health	response	4	184	4	foodImage.47	FOODEEG_Images\0488.jpg	YN	Right	No	0.871025300000838	0	684647	235
1338.244140625	1	decision	trialStart	4	185	5	foodImage.101	FOODEEG_Images\0909.jpg	NY	Left	No	1.10547120000047	0	685182	251
1339.28515625	2	decision	foodImageDisplay	4	185	5	foodImage.101	FOODEEG_Images\0909.jpg	NY	Left	No	1.10547120000047	0	685715	252
1341.349609375	1.10547120000047	decision	choicePhaseStart	4	185	5	foodImage.101	FOODEEG_Images\0909.jpg	NY	Left	No	1.10547120000047	0	686772	253
1342.447265625	0	decision	response	4	185	5	foodImage.101	FOODEEG_Images\0909.jpg	NY	Left	No	1.10547120000047	0	687334	234
1343.490234375	1	decision	trialStart	4	186	6	foodImage.82	FOODEEG_Images\0805.jpg	YN	Left	Yes	0.573561499999414	0	687868	251
1344.552734375	2	decision	foodImageDisplay	4	186	6	foodImage.82	FOODEEG_Images\0805.jpg	YN	Left	Yes	0.573561499999414	0	688412	252
1346.619140625	0.573561499999414	decision	choicePhaseStart	4	186	6	foodImage.82	FOODEEG_Images\0805.jpg	YN	Left	Yes	0.573561499999414	0	689470	253
1347.18359375	0	decision	response	4	186	6	foodImage.82	FOODEEG_Images\0805.jpg	YN	Left	Yes	0.573561499999414	0	689759	234
1348.2265625	1	taste	trialStart	4	187	7	foodImage.87	FOODEEG_Images\0873.jpg	NY	Left	No	0.804995500000587	0	690293	251
1349.28515625	2	taste	foodImageDisplay	4	187	7	foodImage.87	FOODEEG_Images\0873.jpg	NY	Left	No	0.804995500000587	0	690835	252
1351.34765625	0.804995500000587	taste	choicePhaseStart	4	187	7	foodImage.87	FOODEEG_Images\0873.jpg	NY	Left	No	0.804995500000587	0	691891	253
1352.14453125	0	taste	response	4	187	7	foodImage.87	FOODEEG_Images\0873.jpg	NY	Left	No	0.804995500000587	0	692299	234
1353.1875	1	taste	trialStart	4	188	8	foodImage.105	FOODEEG_Images\0913.jpg	NY	Left	No	0.935121900000013	0	692833	251
1354.2265625	2	taste	foodImageDisplay	4	188	8	foodImage.105	FOODEEG_Images\0913.jpg	NY	Left	No	0.935121900000013	0	693365	252
1356.2890625	0.935121900000013	taste	choicePhaseStart	4	188	8	foodImage.105	FOODEEG_Images\0913.jpg	NY	Left	No	0.935121900000013	0	694421	253
1357.21484375	0	taste	response	4	188	8	foodImage.105	FOODEEG_Images\0913.jpg	NY	Left	No	0.935121900000013	0	694895	234
1358.2578125	1	health	trialStart	4	189	9	foodImage.55	FOODEEG_Images\0567.jpg	YN	Left	Yes	0.669158499998957	0	695429	251
1359.314453125	2	health	foodImageDisplay	4	189	9	foodImage.55	FOODEEG_Images\0567.jpg	YN	Left	Yes	0.669158499998957	0	695970	252
1361.37890625	0.669158499998957	health	choicePhaseStart	4	189	9	foodImage.55	FOODEEG_Images\0567.jpg	YN	Left	Yes	0.669158499998957	0	697027	253
1362.0390625	0	health	response	4	189	9	foodImage.55	FOODEEG_Images\0567.jpg	YN	Left	Yes	0.669158499998957	0	697365	234
1363.08203125	1	health	trialStart	4	190	10	foodImage.14	FOODEEG_Images\0188.jpg	NY	Right	Yes	0.761555200000657	0	697899	251
1364.14453125	2	health	foodImageDisplay	4	190	10	foodImage.14	FOODEEG_Images\0188.jpg	NY	Right	Yes	0.761555200000657	0	698443	252
1366.20703125	0.761555200000657	health	choicePhaseStart	4	190	10	foodImage.14	FOODEEG_Images\0188.jpg	NY	Right	Yes	0.761555200000657	0	699499	253
1366.958984375	0	health	response	4	190	10	foodImage.14	FOODEEG_Images\0188.jpg	NY	Right	Yes	0.761555200000657	0	699884	235
1368.001953125	1	taste	trialStart	4	191	11	foodImage.71	FOODEEG_Images\0713.jpg	NY	Right	Yes	1.02080740000019	0	700418	251
1369.04296875	2	taste	foodImageDisplay	4	191	11	foodImage.71	FOODEEG_Images\0713.jpg	NY	Right	Yes	1.02080740000019	0	700951	252
1371.107421875	1.02080740000019	taste	choicePhaseStart	4	191	11	foodImage.71	FOODEEG_Images\0713.jpg	NY	Right	Yes	1.02080740000019	0	702008	253
1372.119140625	0	taste	response	4	191	11	foodImage.71	FOODEEG_Images\0713.jpg	NY	Right	Yes	1.02080740000019	0	702526	235
1373.162109375	1	decision	trialStart	4	192	12	foodImage.102	FOODEEG_Images\0910.jpg	NY	Left	No	0.662395899998955	0	703060	251
1374.201171875	2	decision	foodImageDisplay	4	192	12	foodImage.102	FOODEEG_Images\0910.jpg	NY	Left	No	0.662395899998955	0	703592	252
1376.265625	0.662395899998955	decision	choicePhaseStart	4	192	12	foodImage.102	FOODEEG_Images\0910.jpg	NY	Left	No	0.662395899998955	0	704649	253
1376.91796875	0	decision	response	4	192	12	foodImage.102	FOODEEG_Images\0910.jpg	NY	Left	No	0.662395899998955	0	704983	234
1377.96484375	1	decision	trialStart	4	193	13	foodImage.10	FOODEEG_Images\0145.jpg	YN	Left	Yes	0.946038599999156	0	705519	251
1379.037109375	2	decision	foodImageDisplay	4	193	13	foodImage.10	FOODEEG_Images\0145.jpg	YN	Left	Yes	0.946038599999156	0	706068	252
1381.1015625	0.946038599999156	decision	choicePhaseStart	4	193	13	foodImage.10	FOODEEG_Images\0145.jpg	YN	Left	Yes	0.946038599999156	0	707125	253
1382.0390625	0	decision	response	4	193	13	foodImage.10	FOODEEG_Images\0145.jpg	YN	Left	Yes	0.946038599999156	0	707605	234
1383.08203125	1	taste	trialStart	4	194	14	foodImage.28	FOODEEG_Images\0273.jpg	YN	Right	No	1.11319720000029	0	708139	251
1384.125	2	taste	foodImageDisplay	4	194	14	foodImage.28	FOODEEG_Images\0273.jpg	YN	Right	No	1.11319720000029	0	708673	252
