onset	duration	trial_type	event_type	block	trial_total	trial_in_block	food_image_code	food_image_path	button_position	resp_position	resp_choice	choice_rt	resp_too_slow	sample	trigger
36.076171875	2	n/a	blockStart	1	n/a	n/a	n/a	n/a	n/a	n/a	n/a	n/a	n/a	18472	250
38.111328125	1	taste	trialStart	1	1	1	foodImage.105	FOODEEG_Images\0913.jpg	YN	Right	No	0.920075200032443	0	19514	251
39.158203125	2	taste	foodImageDisplay	1	1	1	foodImage.105	FOODEEG_Images\0913.jpg	YN	Right	No	0.920075200032443	0	20050	252
41.22265625	0.920075200032443	taste	choicePhaseStart	1	1	1	foodImage.105	FOODEEG_Images\0913.jpg	YN	Right	No	0.920075200032443	0	21107	253
42.13671875	0	taste	response	1	1	1	foodImage.105	FOODEEG_Images\0913.jpg	YN	Right	No	0.920075200032443	0	21575	235
43.228515625	1	decision	trialStart	1	2	2	foodImage.80	FOODEEG_Images\0796.jpg	NY	Left	No	0.868679100181907	0	22134	251
44.287109375	2	decision	foodImageDisplay	1	2	2	foodImage.80	FOODEEG_Images\0796.jpg	NY	Left	No	0.868679100181907	0	22676	252
46.3515625	0.868679100181907	decision	choicePhaseStart	1	2	2	foodImage.80	FOODEEG_Images\0796.jpg	NY	Left	No	0.868679100181907	0	23733	253
47.21484375	0	decision	response	1	2	2	foodImage.80	FOODEEG_Images\0796.jpg	NY	Left	No	0.868679100181907	0	24175	234
48.271484375	1	taste	trialStart	1	3	3	foodImage.7	FOODEEG_Images\0116.jpg	NY	Right	Yes	0.781291899969801	0	24716	251
49.314453125	2	taste	foodImageDisplay	1	3	3	foodImage.7	FOODEEG_Images\0116.jpg	NY	Right	Yes	0.781291899969801	0	25250	252
51.376953125	0.781291899969801	taste	choicePhaseStart	1	3	3	foodImage.7	FOODEEG_Images\0116.jpg	NY	Right	Yes	0.781291899969801	0	26306	253
52.15234375	0	taste	response	1	3	3	foodImage.7	FOODEEG_Images\0116.jpg	NY	Right	Yes	0.781291899969801	0	26703	235
53.193359375	1	decision	trialStart	1	4	4	foodImage.26	FOODEEG_Images\0262.jpg	YN	Right	No	1.13771430007182	0	27236	251
54.236328125	2	decision	foodImageDisplay	1	4	4	foodImage.26	FOODEEG_Images\0262.jpg	YN	Right	No	1.13771430007182	0	27770	252
56.30078125	1.13771430007182	decision	choicePhaseStart	1	4	4	foodImage.26	FOODEEG_Images\0262.jpg	YN	Right	No	1.13771430007182	0	28827	253
57.431640625	0	decision	response	1	4	4	foodImage.26	FOODEEG_Images\0262.jpg	YN	Right	No	1.13771430007182	0	29406	235
58.4765625	1	taste	trialStart	1	5	5	foodImage.110	FOODEEG_Images\0918.jpg	NY	Right	Yes	0.83105819998309	0	29941	251
59.51953125	2	taste	foodImageDisplay	1	5	5	foodImage.110	FOODEEG_Images\0918.jpg	NY	Right	Yes	0.83105819998309	0	30475	252
61.583984375	0.83105819998309	taste	choicePhaseStart	1	5	5	foodImage.110	FOODEEG_Images\0918.jpg	NY	Right	Yes	0.83105819998309	0	31532	253
62.40625	0	taste	response	1	5	5	foodImage.110	FOODEEG_Images\0918.jpg	NY	Right	Yes	0.83105819998309	0	31953	235
63.458984375	1	decision	trialStart	1	6	6	foodImage.65	FOODEEG_Images\0658.jpg	YN	Left	Yes	0.713680399814621	0	32492	251
64.5	2	decision	foodImageDisplay	1	6	6	foodImage.65	FOODEEG_Images\0658.jpg	YN	Left	Yes	0.713680399814621	0	33025	252
66.564453125	0.713680399814621	decision	choicePhaseStart	1	6	6	foodImage.65	FOODEEG_Images\0658.jpg	YN	Left	Yes	0.713680399814621	0	34082	253
67.271484375	0	decision	response	1	6	6	foodImage.65	FOODEEG_Images\0658.jpg	YN	Left	Yes	0.713680399814621	0	34444	234
68.314453125	1	decision	trialStart	1	7	7	foodImage.27	FOODEEG_Images\0263.jpg	YN	Right	No	0.821096300147474	0	34978	251
69.357421875	2	decision	foodImageDisplay	1	7	7	foodImage.27	FOODEEG_Images\0263.jpg	YN	Right	No	0.821096300147474	0	35512	252
71.423828125	0.821096300147474	decision	choicePhaseStart	1	7	7	foodImage.27	FOODEEG_Images\0263.jpg	YN	Right	No	0.821096300147474	0	36570	253
72.23828125	0	decision	response	1	7	7	foodImage.27	FOODEEG_Images\0263.jpg	YN	Right	No	0.821096300147474	0	36987	235
73.283203125	1	decision	trialStart	1	8	8	foodImage.86	FOODEEG_Images\0844.jpg	NY	Right	Yes	0.68342569982633	0	37522	251
74.35546875	2	decision	foodImageDisplay	1	8	8	foodImage.86	FOODEEG_Images\0844.jpg	NY	Right	Yes	0.68342569982633	0	38071	252
76.419921875	0.68342569982633	decision	choicePhaseStart	1	8	8	foodImage.86	FOODEEG_Images\0844.jpg	NY	Right	Yes	0.68342569982633	0	39128	253
77.09375	0	decision	response	1	8	8	foodImage.86	FOODEEG_Images\0844.jpg	NY	Right	Yes	0.68342569982633	0	39473	235
78.138671875	1	taste	trialStart	1	9	9	foodImage.104	FOODEEG_Images\0912.jpg	NY	Right	Yes	0.832047200063244	0	40008	251
79.17578125	2	taste	foodImageDisplay	1	9	9	foodImage.104	FOODEEG_Images\0912.jpg	NY	Right	Yes	0.832047200063244	0	40539	252
81.23828125	0.832047200063244	taste	choicePhaseStart	1	9	9	foodImage.104	FOODEEG_Images\0912.jpg	NY	Right	Yes	0.832047200063244	0	41595	253
82.0625	0	taste	response	1	9	9	foodImage.104	FOODEEG_Images\0912.jpg	NY	Right	Yes	0.832047200063244	0	42017	235
83.10546875	1	decision	trialStart	1	10	10	foodImage.48	FOODEEG_Images\0494.jpg	YN	Left	Yes	0.850253799930215	0	42551	251
84.1484375	2	decision	foodImageDisplay	1	10	10	foodImage.48	FOODEEG_Images\0494.jpg	YN	Left	Yes	0.850253799930215	0	43085	252
86.2109375	0.850253799930215	decision	choicePhaseStart	1	10	10	foodImage.48	FOODEEG_Images\0494.jpg	YN	Left	Yes	0.850253799930215	0	44141	253
87.0546875	0	decision	response	1	10	10	foodImage.48	FOODEEG_Images\0494.jpg	YN	Left	Yes	0.850253799930215	0	44573	234
88.09765625	1	health	trialStart	1	11	11	foodImage.80	FOODEEG_Images\0796.jpg	NY	Right	Yes	0.946332500083372	0	45107	251
89.1796875	2	health	foodImageDisplay	1	11	11	foodImage.80	FOODEEG_Images\0796.jpg	NY	Right	Yes	0.946332500083372	0	45661	252
91.2421875	0.946332500083372	health	choicePhaseStart	1	11	11	foodImage.80	FOODEEG_Images\0796.jpg	NY	Right	Yes	0.946332500083372	0	46717	253
92.181640625	0	health	response	1	11	11	foodImage.80	FOODEEG_Images\0796.jpg	NY	Right	Yes	0.946332500083372	0	47198	235
93.224609375	1	taste	trialStart	1	12	12	foodImage.97	FOODEEG_Images\0905.jpg	NY	Left	No	0.950087999925017	0	47732	251
94.263671875	2	taste	foodImageDisplay	1	12	12	foodImage.97	FOODEEG_Images\0905.jpg	NY	Left	No	0.950087999925017	0	48264	252
96.328125	0.950087999925017	taste	choicePhaseStart	1	12	12	foodImage.97	FOODEEG_Images\0905.jpg	NY	Left	No	0.950087999925017	0	49321	253
97.26953125	0	taste	response	1	12	12	foodImage.97	FOODEEG_Images\0905.jpg	NY	Left	No	0.950087999925017	0	49803	234
98.3125	1	health	trialStart	1	13	13	foodImage.51	FOODEEG_Images\0536.jpg	NY	Left	No	0.873793400125578	0	50337	251
99.357421875	2	health	foodImageDisplay	1	13	13	foodImage.51	FOODEEG_Images\0536.jpg	NY	Left	No	0.873793400125578	0	50872	252
101.419921875	0.873793400125578	health	choicePhaseStart	1	13	13	foodImage.51	FOODEEG_Images\0536.jpg	NY	Left	No	0.873793400125578	0	51928	253
102.28515625	0	health	response	1	13	13	foodImage.51	FOODEEG_Images\0536.jpg	NY	Left	No	0.873793400125578	0	52371	234
103.328125	1	health	trialStart	1	14	14	foodImage.68	FOODEEG_Images\0685.jpg	NY	Left	No	0.697873499942943	0	52905	251
104.404296875	2	health	foodImageDisplay	1	14	14	foodImage.68	FOODEEG_Images\0685.jpg	NY	Left	No	0.697873499942943	0	53456	252
106.46875	0.697873499942943	health	choicePhaseStart	1	14	14	foodImage.68	FOODEEG_Images\0685.jpg	NY	Left	No	0.697873499942943	0	54513	253
107.15625	0	health	response	1	14	14	foodImage.68	FOODEEG_Images\0685.jpg	NY	Left	No	0.697873499942943	0	54865	234
108.19921875	1	taste	trialStart	1	15	15	foodImage.92	FOODEEG_Images\0900.jpg	YN	Right	No	1.05401240009815	0	55399	251
109.240234375	2	taste	foodImageDisplay	1	15	15	foodImage.92	FOODEEG_Images\0900.jpg	YN	Right	No	1.05401240009815	0	55932	252
111.302734375	1.05401240009815	taste	choicePhaseStart	1	15	15	foodImage.92	FOODEEG_Images\0900.jpg	YN	Right	No	1.05401240009815	0	56988	253
112.34765625	0	taste	response	1	15	15	foodImage.92	FOODEEG_Images\0900.jpg	YN	Right	No	1.05401240009815	0	57523	235
113.390625	1	decision	trialStart	1	16	16	foodImage.95	FOODEEG_Images\0903.jpg	NY	Left	No	0.920971600105986	0	58057	251
114.4296875	2	decision	foodImageDisplay	1	16	16	foodImage.95	FOODEEG_Images\0903.jpg	NY	Left	No	0.920971600105986	0	58589	252
116.4921875	0.920971600105986	decision	choicePhaseStart	1	16	16	foodImage.95	FOODEEG_Images\0903.jpg	NY	Left	No	0.920971600105986	0	59645	253
117.404296875	0	decision	response	1	16	16	foodImage.95	FOODEEG_Images\0903.jpg	NY	Left	No	0.920971600105986	0	60112	234
118.447265625	1	health	trialStart	1	17	17	foodImage.4	FOODEEG_Images\0065.jpg	NY	Left	No	0.86232619988732	0	60646	251
119.50390625	2	health	foodImageDisplay	1	17	17	foodImage.4	FOODEEG_Images\0065.jpg	NY	Left	No	0.86232619988732	0	61187	252
121.56640625	0.86232619988732	health	choicePhaseStart	1	17	17	foodImage.4	FOODEEG_Images\0065.jpg	NY	Left	No	0.86232619988732	0	62243	253
122.419921875	0	health	response	1	17	17	foodImage.4	FOODEEG_Images\0065.jpg	NY	Left	No	0.86232619988732	0	62680	234
123.462890625	1	decision	trialStart	1	18	18	foodImage.77	FOODEEG_Images\0771.jpg	YN	Left	Yes	0.884389000013471	0	63214	251
124.50390625	2	decision	foodImageDisplay	1	18	18	foodImage.77	FOODEEG_Images\0771.jpg	YN	Left	Yes	0.884389000013471	0	63747	252
126.568359375	0.884389000013471	decision	choicePhaseStart	1	18	18	foodImage.77	FOODEEG_Images\0771.jpg	YN	Left	Yes	0.884389000013471	0	64804	253
127.443359375	0	decision	response	1	18	18	foodImage.77	FOODEEG_Images\0771.jpg	YN	Left	Yes	0.884389000013471	0	65252	234
128.486328125	1	taste	trialStart	1	19	19	foodImage.53	FOODEEG_Images\0547.jpg	YN	Left	Yes	0.818486100062728	0	65786	251
129.548828125	2	taste	foodImageDisplay	1	19	19	foodImage.53	FOODEEG_Images\0547.jpg	YN	Left	Yes	0.818486100062728	0	66330	252
131.611328125	0.818486100062728	taste	choicePhaseStart	1	19	19	foodImage.53	FOODEEG_Images\0547.jpg	YN	Left	Yes	0.818486100062728	0	67386	253
132.419921875	0	taste	response	1	19	19	foodImage.53	FOODEEG_Images\0547.jpg	YN	Left	Yes	0.818486100062728	0	67800	234
133.462890625	1	decision	trialStart	1	20	20	foodImage.54	FOODEEG_Images\0560.jpg	NY	Right	Yes	0.82220990001224	0	68334	251
134.51953125	2	decision	foodImageDisplay	1	20	20	foodImage.54	FOODEEG_Images\0560.jpg	NY	Right	Yes	0.82220990001224	0	68875	252
136.58203125	0.82220990001224	decision	choicePhaseStart	1	20	20	foodImage.54	FOODEEG_Images\0560.jpg	NY	Right	Yes	0.82220990001224	0	69931	253
137.396484375	0	decision	response	1	20	20	foodImage.54	FOODEEG_Images\0560.jpg	NY	Right	Yes	0.82220990001224	0	70348	235
138.439453125	1	taste	trialStart	1	21	21	foodImage.20	FOODEEG_Images\0226.jpg	YN	Right	No	1.07645940012299	0	70882	251
139.482421875	2	taste	foodImageDisplay	1	21	21	foodImage.20	FOODEEG_Images\0226.jpg	YN	Right	No	1.07645940012299	0	71416	252
141.544921875	1.07645940012299	taste	choicePhaseStart	1	21	21	foodImage.20	FOODEEG_Images\0226.jpg	YN	Right	No	1.07645940012299	0	72472	253
142.611328125	0	taste	response	1	21	21	foodImage.20	FOODEEG_Images\0226.jpg	YN	Right	No	1.07645940012299	0	73018	235
143.654296875	1	taste	trialStart	1	22	22	foodImage.57	FOODEEG_Images\0587.jpg	YN	Left	Yes	1.31631770008244	0	73552	251
144.697265625	2	taste	foodImageDisplay	1	22	22	foodImage.57	FOODEEG_Images\0587.jpg	YN	Left	Yes	1.31631770008244	0	74086	252
146.759765625	1.31631770008244	taste	choicePhaseStart	1	22	22	foodImage.57	FOODEEG_Images\0587.jpg	YN	Left	Yes	1.31631770008244	0	75142	253
148.06640625	0	taste	response	1	22	22	foodImage.57	FOODEEG_Images\0587.jpg	YN	Left	Yes	1.31631770008244	0	75811	234
149.109375	1	health	trialStart	1	23	23	foodImage.31	FOODEEG_Images\0294.jpg	NY	Left	No	1.03615979989991	0	76345	251
150.15234375	2	health	foodImageDisplay	1	23	23	foodImage.31	FOODEEG_Images\0294.jpg	NY	Left	No	1.03615979989991	0	76879	252
152.21484375	1.03615979989991	health	choicePhaseStart	1	23	23	foodImage.31	FOODEEG_Images\0294.jpg	NY	Left	No	1.03615979989991	0	77935	253
153.2421875	0	health	response	1	23	23	foodImage.31	FOODEEG_Images\0294.jpg	NY	Left	No	1.03615979989991	0	78461	234
154.283203125	1	health	trialStart	1	24	24	foodImage.24	FOODEEG_Images\0250.jpg	YN	Left	Yes	1.71118230000138	0	78994	251
155.326171875	2	health	foodImageDisplay	1	24	24	foodImage.24	FOODEEG_Images\0250.jpg	YN	Left	Yes	1.71118230000138	0	79528	252
157.388671875	1.71118230000138	health	choicePhaseStart	1	24	24	foodImage.24	FOODEEG_Images\0250.jpg	YN	Left	Yes	1.71118230000138	0	80584	253
159.08984375	0	health	response	1	24	24	foodImage.24	FOODEEG_Images\0250.jpg	YN	Left	Yes	1.71118230000138	0	81455	234
160.1328125	1	decision	trialStart	1	25	25	foodImage.82	FOODEEG_Images\0805.jpg	YN	Right	No	1.00247059995309	0	81989	251
161.1875	2	decision	foodImageDisplay	1	25	25	foodImage.82	FOODEEG_Images\0805.jpg	YN	Right	No	1.00247059995309	0	82529	252
163.25	1.00247059995309	decision	choicePhaseStart	1	25	25	foodImage.82	FOODEEG_Images\0805.jpg	YN	Right	No	1.00247059995309	0	83585	253
164.2421875	0	decision	response	1	25	25	foodImage.82	FOODEEG_Images\0805.jpg	YN	Right	No	1.00247059995309	0	84093	235
165.283203125	1	health	trialStart	1	26	26	foodImage.3	FOODEEG_Images\0046.jpg	YN	Right	No	0.921909700147808	0	84626	251
166.32421875	2	health	foodImageDisplay	1	26	26	foodImage.3	FOODEEG_Images\0046.jpg	YN	Right	No	0.921909700147808	0	85159	252
168.384765625	0.921909700147808	health	choicePhaseStart	1	26	26	foodImage.3	FOODEEG_Images\0046.jpg	YN	Right	No	0.921909700147808	0	86214	253
169.298828125	0	health	response	1	26	26	foodImage.3	FOODEEG_Images\0046.jpg	YN	Right	No	0.921909700147808	0	86682	235
170.337890625	1	decision	trialStart	1	27	27	foodImage.17	FOODEEG_Images\0199.jpg	YN	Left	Yes	0.904266299912706	0	87214	251
171.380859375	2	decision	foodImageDisplay	1	27	27	foodImage.17	FOODEEG_Images\0199.jpg	YN	Left	Yes	0.904266299912706	0	87748	252
173.443359375	0.904266299912706	decision	choicePhaseStart	1	27	27	foodImage.17	FOODEEG_Images\0199.jpg	YN	Left	Yes	0.904266299912706	0	88804	253
174.337890625	0	decision	response	1	27	27	foodImage.17	FOODEEG_Images\0199.jpg	YN	Left	Yes	0.904266299912706	0	89262	234
175.380859375	1	taste	trialStart	1	28	28	foodImage.61	FOODEEG_Images\0640.jpg	NY	Left	No	1.34135410003364	0	89796	251
176.421875	2	taste	foodImageDisplay	1	28	28	foodImage.61	FOODEEG_Images\0640.jpg	NY	Left	No	1.34135410003364	0	90329	252
178.486328125	1.34135410003364	taste	choicePhaseStart	1	28	28	foodImage.61	FOODEEG_Images\0640.jpg	NY	Left	No	1.34135410003364	0	91386	253
179.818359375	0	taste	response	1	28	28	foodImage.61	FOODEEG_Images\0640.jpg	NY	Left	No	1.34135410003364	0	92068	234
180.861328125	1	decision	trialStart	1	29	29	foodImage.47	FOODEEG_Images\0488.jpg	YN	Left	Yes	0.963078100001439	0	92602	251
181.904296875	2	decision	foodImageDisplay	1	29	29	foodImage.47	FOODEEG_Images\0488.jpg	YN	Left	Yes	0.963078100001439	0	93136	252
183.966796875	0.963078100001439	decision	choicePhaseStart	1	29	29	foodImage.47	FOODEEG_Images\0488.jpg	YN	Left	Yes	0.963078100001439	0	94192	253
184.921875	0	decision	response	1	29	29	foodImage.47	FOODEEG_Images\0488.jpg	YN	Left	Yes	0.963078100001439	0	94681	234
185.96484375	1	health	trialStart	1	30	30	foodImage.69	FOODEEG_Images\0693.jpg	NY	Left	No	2.11318490002304	0	95215	251
187.009765625	2	health	foodImageDisplay	1	30	30	foodImage.69	FOODEEG_Images\0693.jpg	NY	Left	No	2.11318490002304	0	95750	252
189.072265625	2.11318490002304	health	choicePhaseStart	1	30	30	foodImage.69	FOODEEG_Images\0693.jpg	NY	Left	No	2.11318490002304	0	96806	253
191.177734375	0	health	response	1	30	30	foodImage.69	FOODEEG_Images\0693.jpg	NY	Left	No	2.11318490002304	0	97884	234
192.224609375	1	health	trialStart	1	31	31	foodImage.100	FOODEEG_Images\0908.jpg	NY	Left	No	1.088075700216	0	98420	251
193.28125	2	health	foodImageDisplay	1	31	31	foodImage.100	FOODEEG_Images\0908.jpg	NY	Left	No	1.088075700216	0	98961	252
195.345703125	1.088075700216	health	choicePhaseStart	1	31	31	foodImage.100	FOODEEG_Images\0908.jpg	NY	Left	No	1.088075700216	0	100018	253
196.42578125	0	health	response	1	31	31	foodImage.100	FOODEEG_Images\0908.jpg	NY	Left	No	1.088075700216	0	100571	234
197.466796875	1	taste	trialStart	1	32	32	foodImage.55	FOODEEG_Images\0567.jpg	NY	Right	Yes	1.15303130005486	0	101104	251
198.52734375	2	taste	foodImageDisplay	1	32	32	foodImage.55	FOODEEG_Images\0567.jpg	NY	Right	Yes	1.15303130005486	0	101647	252
200.59375	1.15303130005486	taste	choicePhaseStart	1	32	32	foodImage.55	FOODEEG_Images\0567.jpg	NY	Right	Yes	1.15303130005486	0	102705	253
201.736328125	0	taste	response	1	32	32	foodImage.55	FOODEEG_Images\0567.jpg	NY	Right	Yes	1.15303130005486	0	103290	235
202.779296875	1	taste	trialStart	1	33	33	foodImage.11	FOODEEG_Images\0180.jpg	YN	Left	Yes	1.1826476000715	0	103824	251
203.8203125	2	taste	foodImageDisplay	1	33	33	foodImage.11	FOODEEG_Images\0180.jpg	YN	Left	Yes	1.1826476000715	0	104357	252
205.8828125	1.1826476000715	taste	choicePhaseStart	1	33	33	foodImage.11	FOODEEG_Images\0180.jpg	YN	Left	Yes	1.1826476000715	0	105413	253
207.056640625	0	taste	response	1	33	33	foodImage.11	FOODEEG_Images\0180.jpg	YN	Left	Yes	1.1826476000715	0	106014	234
208.099609375	1	taste	trialStart	1	34	34	foodImage.52	FOODEEG_Images\0539.jpg	YN	Left	Yes	0.965093499980867	0	106548	251
209.158203125	2	taste	foodImageDisplay	1	34	34	foodImage.52	FOODEEG_Images\0539.jpg	YN	Left	Yes	0.965093499980867	0	107090	252
211.220703125	0.965093499980867	taste	choicePhaseStart	1	34	34	foodImage.52	FOODEEG_Images\0539.jpg	YN	Left	Yes	0.965093499980867	0	108146	253
212.17578125	0	taste	response	1	34	34	foodImage.52	FOODEEG_Images\0539.jpg	YN	Left	Yes	0.965093499980867	0	108635	234
213.216796875	1	health	trialStart	1	35	35	foodImage.2	FOODEEG_Images\0028.jpg	YN	Right	No	0.966057399986312	0	109168	251
214.259765625	2	health	foodImageDisplay	1	35	35	foodImage.2	FOODEEG_Images\0028.jpg	YN	Right	No	0.966057399986312	0	109702	252
216.322265625	0.966057399986312	health	choicePhaseStart	1	35	35	foodImage.2	FOODEEG_Images\0028.jpg	YN	Right	No	0.966057399986312	0	110758	253
217.28125	0	health	response	1	35	35	foodImage.2	FOODEEG_Images\0028.jpg	YN	Right	No	0.966057399986312	0	111249	235
218.32421875	1	decision	trialStart	1	36	36	foodImage.79	FOODEEG_Images\0794.jpg	NY	Right	Yes	1.10671910014935	0	111783	251
219.3671875	2	decision	foodImageDisplay	1	36	36	foodImage.79	FOODEEG_Images\0794.jpg	NY	Right	Yes	1.10671910014935	0	112317	252
221.4296875	1.10671910014935	decision	choicePhaseStart	1	36	36	foodImage.79	FOODEEG_Images\0794.jpg	NY	Right	Yes	1.10671910014935	0	113373	253
222.52734375	0	decision	response	1	36	36	foodImage.79	FOODEEG_Images\0794.jpg	NY	Right	Yes	1.10671910014935	0	113935	235
223.5703125	1	decision	trialStart	1	37	37	foodImage.108	FOODEEG_Images\0916.jpg	NY	Left	No	0.824492499930784	0	114469	251
224.609375	2	decision	foodImageDisplay	1	37	37	foodImage.108	FOODEEG_Images\0916.jpg	NY	Left	No	0.824492499930784	0	115001	252
226.671875	0.824492499930784	decision	choicePhaseStart	1	37	37	foodImage.108	FOODEEG_Images\0916.jpg	NY	Left	No	0.824492499930784	0	116057	253
227.48828125	0	decision	response	1	37	37	foodImage.108	FOODEEG_Images\0916.jpg	NY	Left	No	0.824492499930784	0	116475	234
228.53125	1	decision	trialStart	1	38	38	foodImage.92	FOODEEG_Images\0900.jpg	YN	Right	No	1.00136779993773	0	117009	251
229.568359375	2	decision	foodImageDisplay	1	38	38	foodImage.92	FOODEEG_Images\0900.jpg	YN	Right	No	1.00136779993773	0	117540	252
231.630859375	1.00136779993773	decision	choicePhaseStart	1	38	38	foodImage.92	FOODEEG_Images\0900.jpg	YN	Right	No	1.00136779993773	0	118596	253
232.625	0	decision	response	1	38	38	foodImage.92	FOODEEG_Images\0900.jpg	YN	Right	No	1.00136779993773	0	119105	235
233.666015625	1	health	trialStart	1	39	39	foodImage.38	FOODEEG_Images\0365.jpg	YN	Left	Yes	1.00137710012496	0	119638	251
234.705078125	2	health	foodImageDisplay	1	39	39	foodImage.38	FOODEEG_Images\0365.jpg	YN	Left	Yes	1.00137710012496	0	120170	252
236.767578125	1.00137710012496	health	choicePhaseStart	1	39	39	foodImage.38	FOODEEG_Images\0365.jpg	YN	Left	Yes	1.00137710012496	0	121226	253
237.759765625	0	health	response	1	39	39	foodImage.38	FOODEEG_Images\0365.jpg	YN	Left	Yes	1.00137710012496	0	121734	234
238.80078125	1	decision	trialStart	1	40	40	foodImage.7	FOODEEG_Images\0116.jpg	YN	Left	Yes	0.914794499985874	0	122267	251
239.84375	2	decision	foodImageDisplay	1	40	40	foodImage.7	FOODEEG_Images\0116.jpg	YN	Left	Yes	0.914794499985874	0	122801	252
241.91015625	0.914794499985874	decision	choicePhaseStart	1	40	40	foodImage.7	FOODEEG_Images\0116.jpg	YN	Left	Yes	0.914794499985874	0	123859	253
242.81640625	0	decision	response	1	40	40	foodImage.7	FOODEEG_Images\0116.jpg	YN	Left	Yes	0.914794499985874	0	124323	234
243.859375	1	decision	trialStart	1	41	41	foodImage.78	FOODEEG_Images\0787.jpg	YN	Right	No	1.23752749990672	0	124857	251
244.904296875	2	decision	foodImageDisplay	1	41	41	foodImage.78	FOODEEG_Images\0787.jpg	YN	Right	No	1.23752749990672	0	125392	252
246.970703125	1.23752749990672	decision	choicePhaseStart	1	41	41	foodImage.78	FOODEEG_Images\0787.jpg	YN	Right	No	1.23752749990672	0	126450	253
248.19921875	0	decision	response	1	41	41	foodImage.78	FOODEEG_Images\0787.jpg	YN	Right	No	1.23752749990672	0	127079	235
249.2421875	1	taste	trialStart	1	42	42	foodImage.90	FOODEEG_Images\0890.jpg	YN	Right	No	1.25221589999273	0	127613	251
250.302734375	2	taste	foodImageDisplay	1	42	42	foodImage.90	FOODEEG_Images\0890.jpg	YN	Right	No	1.25221589999273	0	128156	252
252.365234375	1.25221589999273	taste	choicePhaseStart	1	42	42	foodImage.90	FOODEEG_Images\0890.jpg	YN	Right	No	1.25221589999273	0	129212	253
253.607421875	0	taste	response	1	42	42	foodImage.90	FOODEEG_Images\0890.jpg	YN	Right	No	1.25221589999273	0	129848	235
254.65625	1	decision	trialStart	1	43	43	foodImage.35	FOODEEG_Images\0350.jpg	YN	Left	Yes	0.938225599937141	0	130385	251
255.693359375	2	decision	foodImageDisplay	1	43	43	foodImage.35	FOODEEG_Images\0350.jpg	YN	Left	Yes	0.938225599937141	0	130916	252
257.755859375	0.938225599937141	decision	choicePhaseStart	1	43	43	foodImage.35	FOODEEG_Images\0350.jpg	YN	Left	Yes	0.938225599937141	0	131972	253
258.6875	0	decision	response	1	43	43	foodImage.35	FOODEEG_Images\0350.jpg	YN	Left	Yes	0.938225599937141	0	132449	234
259.728515625	1	taste	trialStart	1	44	44	foodImage.86	FOODEEG_Images\0844.jpg	NY	Right	Yes	0.921108300099149	0	132982	251
260.79296875	2	taste	foodImageDisplay	1	44	44	foodImage.86	FOODEEG_Images\0844.jpg	NY	Right	Yes	0.921108300099149	0	133527	252
262.85546875	0.921108300099149	taste	choicePhaseStart	1	44	44	foodImage.86	FOODEEG_Images\0844.jpg	NY	Right	Yes	0.921108300099149	0	134583	253
263.767578125	0	taste	response	1	44	44	foodImage.86	FOODEEG_Images\0844.jpg	NY	Right	Yes	0.921108300099149	0	135050	235
264.810546875	1	taste	trialStart	1	45	45	foodImage.21	FOODEEG_Images\0234.jpg	YN	Left	Yes	0.782239200081676	0	135584	251
265.8671875	2	taste	foodImageDisplay	1	45	45	foodImage.21	FOODEEG_Images\0234.jpg	YN	Left	Yes	0.782239200081676	0	136125	252
267.9296875	0.782239200081676	taste	choicePhaseStart	1	45	45	foodImage.21	FOODEEG_Images\0234.jpg	YN	Left	Yes	0.782239200081676	0	137181	253
268.703125	0	taste	response	1	45	45	foodImage.21	FOODEEG_Images\0234.jpg	YN	Left	Yes	0.782239200081676	0	137577	234
269.7421875	1	health	trialStart	1	46	46	foodImage.35	FOODEEG_Images\0350.jpg	YN	Right	No	0.820491599850357	0	138109	251
270.779296875	2	health	foodImageDisplay	1	46	46	foodImage.35	FOODEEG_Images\0350.jpg	YN	Right	No	0.820491599850357	0	138640	252
272.841796875	0.820491599850357	health	choicePhaseStart	1	46	46	foodImage.35	FOODEEG_Images\0350.jpg	YN	Right	No	0.820491599850357	0	139696	253
273.654296875	0	health	response	1	46	46	foodImage.35	FOODEEG_Images\0350.jpg	YN	Right	No	0.820491599850357	0	140112	235
274.6953125	1	decision	trialStart	1	47	47	foodImage.75	FOODEEG_Images\0763.jpg	YN	Left	Yes	0.811383600113913	0	140645	251
275.740234375	2	decision	foodImageDisplay	1	47	47	foodImage.75	FOODEEG_Images\0763.jpg	YN	Left	Yes	0.811383600113913	0	141180	252
277.802734375	0.811383600113913	decision	choicePhaseStart	1	47	47	foodImage.75	FOODEEG_Images\0763.jpg	YN	Left	Yes	0.811383600113913	0	142236	253
278.60546875	0	decision	response	1	47	47	foodImage.75	FOODEEG_Images\0763.jpg	YN	Left	Yes	0.811383600113913	0	142647	234
279.6484375	1	health	trialStart	1	48	48	foodImage.29	FOODEEG_Images\0278.jpg	YN	Left	Yes	0.90812879987061	0	143181	251
280.69140625	2	health	foodImageDisplay	1	48	48	foodImage.29	FOODEEG_Images\0278.jpg	YN	Left	Yes	0.90812879987061	0	143715	252
282.75390625	0.90812879987061	health	choicePhaseStart	1	48	48	foodImage.29	FOODEEG_Images\0278.jpg	YN	Left	Yes	0.90812879987061	0	144771	253
283.654296875	0	health	response	1	48	48	foodImage.29	FOODEEG_Images\0278.jpg	YN	Left	Yes	0.90812879987061	0	145232	234
284.693359375	1	taste	trialStart	1	49	49	foodImage.100	FOODEEG_Images\0908.jpg	NY	Left	No	1.21088959998451	0	145764	251
285.732421875	2	taste	foodImageDisplay	1	49	49	foodImage.100	FOODEEG_Images\0908.jpg	NY	Left	No	1.21088959998451	0	146296	252
287.794921875	1.21088959998451	taste	choicePhaseStart	1	49	49	foodImage.100	FOODEEG_Images\0908.jpg	NY	Left	No	1.21088959998451	0	147352	253
288.998046875	0	taste	response	1	49	49	foodImage.100	FOODEEG_Images\0908.jpg	NY	Left	No	1.21088959998451	0	147968	234
290.041015625	1	health	trialStart	1	50	50	foodImage.33	FOODEEG_Images\0329.jpg	YN	Left	Yes	0.682718200143427	0	148502	251
291.083984375	2	health	foodImageDisplay	1	50	50	foodImage.33	FOODEEG_Images\0329.jpg	YN	Left	Yes	0.682718200143427	0	149036	252
293.146484375	0.682718200143427	health	choicePhaseStart	1	50	50	foodImage.33	FOODEEG_Images\0329.jpg	YN	Left	Yes	0.682718200143427	0	150092	253
293.822265625	0	health	response	1	50	50	foodImage.33	FOODEEG_Images\0329.jpg	YN	Left	Yes	0.682718200143427	0	150438	234
294.865234375	1	health	trialStart	1	51	51	foodImage.75	FOODEEG_Images\0763.jpg	NY	Right	Yes	0.95626170001924	0	150972	251
295.908203125	2	health	foodImageDisplay	1	51	51	foodImage.75	FOODEEG_Images\0763.jpg	NY	Right	Yes	0.95626170001924	0	151506	252
297.970703125	0.95626170001924	health	choicePhaseStart	1	51	51	foodImage.75	FOODEEG_Images\0763.jpg	NY	Right	Yes	0.95626170001924	0	152562	253
298.91796875	0	health	response	1	51	51	foodImage.75	FOODEEG_Images\0763.jpg	NY	Right	Yes	0.95626170001924	0	153047	235
299.958984375	1	health	trialStart	1	52	52	foodImage.97	FOODEEG_Images\0905.jpg	YN	Right	No	1.28264310001396	0	153580	251
300.99609375	2	health	foodImageDisplay	1	52	52	foodImage.97	FOODEEG_Images\0905.jpg	YN	Right	No	1.28264310001396	0	154111	252
303.05859375	1.28264310001396	health	choicePhaseStart	1	52	52	foodImage.97	FOODEEG_Images\0905.jpg	YN	Right	No	1.28264310001396	0	155167	253
304.333984375	0	health	response	1	52	52	foodImage.97	FOODEEG_Images\0905.jpg	YN	Right	No	1.28264310001396	0	155820	235
305.375	1	health	trialStart	1	53	53	foodImage.118	FOODEEG_Images\0926.jpg	YN	Right	No	1.89476400008425	0	156353	251
306.416015625	2	health	foodImageDisplay	1	53	53	foodImage.118	FOODEEG_Images\0926.jpg	YN	Right	No	1.89476400008425	0	156886	252
308.478515625	1.89476400008425	health	choicePhaseStart	1	53	53	foodImage.118	FOODEEG_Images\0926.jpg	YN	Right	No	1.89476400008425	0	157942	253
310.365234375	0	health	response	1	53	53	foodImage.118	FOODEEG_Images\0926.jpg	YN	Right	No	1.89476400008425	0	158908	235
311.40625	1	taste	trialStart	1	54	54	foodImage.32	FOODEEG_Images\0319.jpg	NY	Right	Yes	0.956990200094879	0	159441	251
312.44921875	2	taste	foodImageDisplay	1	54	54	foodImage.32	FOODEEG_Images\0319.jpg	NY	Right	Yes	0.956990200094879	0	159975	252
314.51171875	0.956990200094879	taste	choicePhaseStart	1	54	54	foodImage.32	FOODEEG_Images\0319.jpg	NY	Right	Yes	0.956990200094879	0	161031	253
315.4609375	0	taste	response	1	54	54	foodImage.32	FOODEEG_Images\0319.jpg	NY	Right	Yes	0.956990200094879	0	161517	235
316.50390625	1	taste	trialStart	1	55	55	foodImage.62	FOODEEG_Images\0644.jpg	NY	Right	Yes	2.23857309995219	0	162051	251
317.568359375	2	taste	foodImageDisplay	1	55	55	foodImage.62	FOODEEG_Images\0644.jpg	NY	Right	Yes	2.23857309995219	0	162596	252
319.630859375	2.23857309995219	taste	choicePhaseStart	1	55	55	foodImage.62	FOODEEG_Images\0644.jpg	NY	Right	Yes	2.23857309995219	0	163652	253
321.861328125	0	taste	response	1	55	55	foodImage.62	FOODEEG_Images\0644.jpg	NY	Right	Yes	2.23857309995219	0	164794	235
322.900390625	1	health	trialStart	1	56	56	foodImage.52	FOODEEG_Images\0539.jpg	YN	Left	Yes	0.952142599970102	0	165326	251
323.95703125	2	health	foodImageDisplay	1	56	56	foodImage.52	FOODEEG_Images\0539.jpg	YN	Left	Yes	0.952142599970102	0	165867	252
326.01953125	0.952142599970102	health	choicePhaseStart	1	56	56	foodImage.52	FOODEEG_Images\0539.jpg	YN	Left	Yes	0.952142599970102	0	166923	253
326.96484375	0	health	response	1	56	56	foodImage.52	FOODEEG_Images\0539.jpg	YN	Left	Yes	0.952142599970102	0	167407	234
328.005859375	1	decision	trialStart	1	57	57	foodImage.24	FOODEEG_Images\0250.jpg	YN	Left	Yes	1.66375420009717	0	167940	251
329.046875	2	decision	foodImageDisplay	1	57	57	foodImage.24	FOODEEG_Images\0250.jpg	YN	Left	Yes	1.66375420009717	0	168473	252
331.109375	1.66375420009717	decision	choicePhaseStart	1	57	57	foodImage.24	FOODEEG_Images\0250.jpg	YN	Left	Yes	1.66375420009717	0	169529	253
332.763671875	0	decision	response	1	57	57	foodImage.24	FOODEEG_Images\0250.jpg	YN	Left	Yes	1.66375420009717	0	170376	234
333.802734375	1	taste	trialStart	1	58	58	foodImage.25	FOODEEG_Images\0261.jpg	YN	Left	Yes	1.04028639988974	0	170908	251
334.84765625	2	taste	foodImageDisplay	1	58	58	foodImage.25	FOODEEG_Images\0261.jpg	YN	Left	Yes	1.04028639988974	0	171443	252
336.91015625	1.04028639988974	taste	choicePhaseStart	1	58	58	foodImage.25	FOODEEG_Images\0261.jpg	YN	Left	Yes	1.04028639988974	0	172499	253
337.939453125	0	taste	response	1	58	58	foodImage.25	FOODEEG_Images\0261.jpg	YN	Left	Yes	1.04028639988974	0	173026	234
338.98046875	1	health	trialStart	1	59	59	foodImage.67	FOODEEG_Images\0679.jpg	YN	Right	No	0.874768299981952	0	173559	251
340.03515625	2	health	foodImageDisplay	1	59	59	foodImage.67	FOODEEG_Images\0679.jpg	YN	Right	No	0.874768299981952	0	174099	252
342.09765625	0.874768299981952	health	choicePhaseStart	1	59	59	foodImage.67	FOODEEG_Images\0679.jpg	YN	Right	No	0.874768299981952	0	175155	253
342.962890625	0	health	response	1	59	59	foodImage.67	FOODEEG_Images\0679.jpg	YN	Right	No	0.874768299981952	0	175598	235
344.00390625	1	taste	trialStart	1	60	60	foodImage.34	FOODEEG_Images\0339.jpg	YN	Right	No	1.15239499998279	0	176131	251
345.0625	2	taste	foodImageDisplay	1	60	60	foodImage.34	FOODEEG_Images\0339.jpg	YN	Right	No	1.15239499998279	0	176673	252
347.125	1.15239499998279	taste	choicePhaseStart	1	60	60	foodImage.34	FOODEEG_Images\0339.jpg	YN	Right	No	1.15239499998279	0	177729	253
348.267578125	0	taste	response	1	60	60	foodImage.34	FOODEEG_Images\0339.jpg	YN	Right	No	1.15239499998279	0	178314	235
350.30859375	22.462890625	n/a	blockEnd	n/a	n/a	n/a	n/a	n/a	n/a	n/a	n/a	n/a	n/a	179359	254
372.771484375	2	n/a	blockStart	2	n/a	n/a	n/a	n/a	n/a	n/a	n/a	n/a	n/a	190860	250
374.80859375	1	health	trialStart	2	61	1	foodImage.20	FOODEEG_Images\0226.jpg	YN	Right	No	1.06294459989294	0	191903	251
375.8515625	2	health	foodImageDisplay	2	61	1	foodImage.20	FOODEEG_Images\0226.jpg	YN	Right	No	1.06294459989294	0	192437	252
377.9140625	1.06294459989294	health	choicePhaseStart	2	61	1	foodImage.20	FOODEEG_Images\0226.jpg	YN	Right	No	1.06294459989294	0	193493	253
378.970703125	0	health	response	2	61	1	foodImage.20	FOODEEG_Images\0226.jpg	YN	Right	No	1.06294459989294	0	194034	235
380.009765625	1	health	trialStart	2	62	2	foodImage.21	FOODEEG_Images\0234.jpg	NY	Right	Yes	0.884582299971953	0	194566	251
381.0703125	2	health	foodImageDisplay	2	62	2	foodImage.21	FOODEEG_Images\0234.jpg	NY	Right	Yes	0.884582299971953	0	195109	252
383.1328125	0.884582299971953	health	choicePhaseStart	2	62	2	foodImage.21	FOODEEG_Images\0234.jpg	NY	Right	Yes	0.884582299971953	0	196165	253
384.009765625	0	health	response	2	62	2	foodImage.21	FOODEEG_Images\0234.jpg	NY	Right	Yes	0.884582299971953	0	196614	235
385.052734375	1	decision	trialStart	2	63	3	foodImage.68	FOODEEG_Images\0685.jpg	YN	Left	Yes	1.892448999919	0	197148	251
386.12890625	2	decision	foodImageDisplay	2	63	3	foodImage.68	FOODEEG_Images\0685.jpg	YN	Left	Yes	1.892448999919	0	197699	252
388.19140625	1.892448999919	decision	choicePhaseStart	2	63	3	foodImage.68	FOODEEG_Images\0685.jpg	YN	Left	Yes	1.892448999919	0	198755	253
390.07421875	0	decision	response	2	63	3	foodImage.68	FOODEEG_Images\0685.jpg	YN	Left	Yes	1.892448999919	0	199719	234
391.1171875	1	taste	trialStart	2	64	4	foodImage.42	FOODEEG_Images\0438.jpg	NY	Right	Yes	1.06470250012353	0	200253	251
392.205078125	2	taste	foodImageDisplay	2	64	4	foodImage.42	FOODEEG_Images\0438.jpg	NY	Right	Yes	1.06470250012353	0	200810	252
394.267578125	1.06470250012353	taste	choicePhaseStart	2	64	4	foodImage.42	FOODEEG_Images\0438.jpg	NY	Right	Yes	1.06470250012353	0	201866	253
395.322265625	0	taste	response	2	64	4	foodImage.42	FOODEEG_Images\0438.jpg	NY	Right	Yes	1.06470250012353	0	202406	235
396.361328125	1	taste	trialStart	2	65	5	foodImage.22	FOODEEG_Images\0236.jpg	NY	Right	Yes	2.69745870004408	0	202938	251
397.400390625	2	taste	foodImageDisplay	2	65	5	foodImage.22	FOODEEG_Images\0236.jpg	NY	Right	Yes	2.69745870004408	0	203470	252
399.462890625	2.69745870004408	taste	choicePhaseStart	2	65	5	foodImage.22	FOODEEG_Images\0236.jpg	NY	Right	Yes	2.69745870004408	0	204526	253
402.154296875	0	taste	response	2	65	5	foodImage.22	FOODEEG_Images\0236.jpg	NY	Right	Yes	2.69745870004408	0	205904	235
403.1953125	1	health	trialStart	2	66	6	foodImage.13	FOODEEG_Images\0183.jpg	NY	Right	Yes	2.38207860011607	0	206437	251
404.236328125	2	health	foodImageDisplay	2	66	6	foodImage.13	FOODEEG_Images\0183.jpg	NY	Right	Yes	2.38207860011607	0	206970	252
406.298828125	2.38207860011607	health	choicePhaseStart	2	66	6	foodImage.13	FOODEEG_Images\0183.jpg	NY	Right	Yes	2.38207860011607	0	208026	253
408.673828125	0	health	response	2	66	6	foodImage.13	FOODEEG_Images\0183.jpg	NY	Right	Yes	2.38207860011607	0	209242	235
409.712890625	1	decision	trialStart	2	67	7	foodImage.88	FOODEEG_Images\0878.jpg	YN	Left	Yes	0.906508999876678	0	209774	251
410.76953125	2	decision	foodImageDisplay	2	67	7	foodImage.88	FOODEEG_Images\0878.jpg	YN	Left	Yes	0.906508999876678	0	210315	252
412.83203125	0.906508999876678	decision	choicePhaseStart	2	67	7	foodImage.88	FOODEEG_Images\0878.jpg	YN	Left	Yes	0.906508999876678	0	211371	253
413.728515625	0	decision	response	2	67	7	foodImage.88	FOODEEG_Images\0878.jpg	YN	Left	Yes	0.906508999876678	0	211830	234
414.771484375	1	health	trialStart	2	68	8	foodImage.98	FOODEEG_Images\0906.jpg	YN	Right	No	2.37502859998494	0	212364	251
415.810546875	2	health	foodImageDisplay	2	68	8	foodImage.98	FOODEEG_Images\0906.jpg	YN	Right	No	2.37502859998494	0	212896	252
417.873046875	2.37502859998494	health	choicePhaseStart	2	68	8	foodImage.98	FOODEEG_Images\0906.jpg	YN	Right	No	2.37502859998494	0	213952	253
420.240234375	0	health	response	2	68	8	foodImage.98	FOODEEG_Images\0906.jpg	YN	Right	No	2.37502859998494	0	215164	235
421.283203125	1	decision	trialStart	2	69	9	foodImage.52	FOODEEG_Images\0539.jpg	YN	Left	Yes	2.18378079985268	0	215698	251
422.337890625	2	decision	foodImageDisplay	2	69	9	foodImage.52	FOODEEG_Images\0539.jpg	YN	Left	Yes	2.18378079985268	0	216238	252
424.400390625	2.18378079985268	decision	choicePhaseStart	2	69	9	foodImage.52	FOODEEG_Images\0539.jpg	YN	Left	Yes	2.18378079985268	0	217294	253
426.576171875	0	decision	response	2	69	9	foodImage.52	FOODEEG_Images\0539.jpg	YN	Left	Yes	2.18378079985268	0	218408	234
427.6171875	1	decision	trialStart	2	70	10	foodImage.111	FOODEEG_Images\0919.jpg	YN	Right	No	1.08842190005817	0	218941	251
428.658203125	2	decision	foodImageDisplay	2	70	10	foodImage.111	FOODEEG_Images\0919.jpg	YN	Right	No	1.08842190005817	0	219474	252
430.720703125	1.08842190005817	decision	choicePhaseStart	2	70	10	foodImage.111	FOODEEG_Images\0919.jpg	YN	Right	No	1.08842190005817	0	220530	253
431.80078125	0	decision	response	2	70	10	foodImage.111	FOODEEG_Images\0919.jpg	YN	Right	No	1.08842190005817	0	221083	235
432.845703125	1	decision	trialStart	2	71	11	foodImage.18	FOODEEG_Images\0202.jpg	NY	Right	Yes	0.840173499891534	0	221618	251
433.90625	2	decision	foodImageDisplay	2	71	11	foodImage.18	FOODEEG_Images\0202.jpg	NY	Right	Yes	0.840173499891534	0	222161	252
435.96875	0.840173499891534	decision	choicePhaseStart	2	71	11	foodImage.18	FOODEEG_Images\0202.jpg	NY	Right	Yes	0.840173499891534	0	223217	253
436.80078125	0	decision	response	2	71	11	foodImage.18	FOODEEG_Images\0202.jpg	NY	Right	Yes	0.840173499891534	0	223643	235
437.841796875	1	decision	trialStart	2	72	12	foodImage.22	FOODEEG_Images\0236.jpg	NY	Right	Yes	0.864536700071767	0	224176	251
438.8828125	2	decision	foodImageDisplay	2	72	12	foodImage.22	FOODEEG_Images\0236.jpg	NY	Right	Yes	0.864536700071767	0	224709	252
440.9453125	0.864536700071767	decision	choicePhaseStart	2	72	12	foodImage.22	FOODEEG_Images\0236.jpg	NY	Right	Yes	0.864536700071767	0	225765	253
441.798828125	0	decision	response	2	72	12	foodImage.22	FOODEEG_Images\0236.jpg	NY	Right	Yes	0.864536700071767	0	226202	235
442.84375	1	decision	trialStart	2	73	13	foodImage.102	FOODEEG_Images\0910.jpg	YN	Right	No	0.999537400202826	0	226737	251
443.8828125	2	decision	foodImageDisplay	2	73	13	foodImage.102	FOODEEG_Images\0910.jpg	YN	Right	No	0.999537400202826	0	227269	252
445.9453125	0.999537400202826	decision	choicePhaseStart	2	73	13	foodImage.102	FOODEEG_Images\0910.jpg	YN	Right	No	0.999537400202826	0	228325	253
446.935546875	0	decision	response	2	73	13	foodImage.102	FOODEEG_Images\0910.jpg	YN	Right	No	0.999537400202826	0	228832	235
447.978515625	1	taste	trialStart	2	74	14	foodImage.78	FOODEEG_Images\0787.jpg	YN	Right	No	1.46119860000908	0	229366	251
449.037109375	2	taste	foodImageDisplay	2	74	14	foodImage.78	FOODEEG_Images\0787.jpg	YN	Right	No	1.46119860000908	0	229908	252
451.099609375	1.46119860000908	taste	choicePhaseStart	2	74	14	foodImage.78	FOODEEG_Images\0787.jpg	YN	Right	No	1.46119860000908	0	230964	253
452.55078125	0	taste	response	2	74	14	foodImage.78	FOODEEG_Images\0787.jpg	YN	Right	No	1.46119860000908	0	231707	235
453.58984375	1	decision	trialStart	2	75	15	foodImage.13	FOODEEG_Images\0183.jpg	YN	Left	Yes	0.75390989985317	0	232239	251
454.6328125	2	decision	foodImageDisplay	2	75	15	foodImage.13	FOODEEG_Images\0183.jpg	YN	Left	Yes	0.75390989985317	0	232773	252
456.6953125	0.75390989985317	decision	choicePhaseStart	2	75	15	foodImage.13	FOODEEG_Images\0183.jpg	YN	Left	Yes	0.75390989985317	0	233829	253
457.439453125	0	decision	response	2	75	15	foodImage.13	FOODEEG_Images\0183.jpg	YN	Left	Yes	0.75390989985317	0	234210	234
458.484375	1	decision	trialStart	2	76	16	foodImage.71	FOODEEG_Images\0713.jpg	NY	Right	Yes	0.677892399951816	0	234745	251
459.525390625	2	decision	foodImageDisplay	2	76	16	foodImage.71	FOODEEG_Images\0713.jpg	NY	Right	Yes	0.677892399951816	0	235278	252
461.5859375	0.677892399951816	decision	choicePhaseStart	2	76	16	foodImage.71	FOODEEG_Images\0713.jpg	NY	Right	Yes	0.677892399951816	0	236333	253
462.255859375	0	decision	response	2	76	16	foodImage.71	FOODEEG_Images\0713.jpg	NY	Right	Yes	0.677892399951816	0	236676	235
463.296875	1	health	trialStart	2	77	17	foodImage.34	FOODEEG_Images\0339.jpg	NY	Left	No	0.869996800087392	0	237209	251
464.353515625	2	health	foodImageDisplay	2	77	17	foodImage.34	FOODEEG_Images\0339.jpg	NY	Left	No	0.869996800087392	0	237750	252
466.416015625	0.869996800087392	health	choicePhaseStart	2	77	17	foodImage.34	FOODEEG_Images\0339.jpg	NY	Left	No	0.869996800087392	0	238806	253
467.279296875	0	health	response	2	77	17	foodImage.34	FOODEEG_Images\0339.jpg	NY	Left	No	0.869996800087392	0	239248	234
468.322265625	1	decision	trialStart	2	78	18	foodImage.118	FOODEEG_Images\0926.jpg	NY	Left	No	1.00204170006327	0	239782	251
469.359375	2	decision	foodImageDisplay	2	78	18	foodImage.118	FOODEEG_Images\0926.jpg	NY	Left	No	1.00204170006327	0	240313	252
471.421875	1.00204170006327	decision	choicePhaseStart	2	78	18	foodImage.118	FOODEEG_Images\0926.jpg	NY	Left	No	1.00204170006327	0	241369	253
472.4140625	0	decision	response	2	78	18	foodImage.118	FOODEEG_Images\0926.jpg	NY	Left	No	1.00204170006327	0	241877	234
473.45703125	1	taste	trialStart	2	79	19	foodImage.31	FOODEEG_Images\0294.jpg	YN	Left	Yes	1.1570381000638	0	242411	251
474.5	2	taste	foodImageDisplay	2	79	19	foodImage.31	FOODEEG_Images\0294.jpg	YN	Left	Yes	1.1570381000638	0	242945	252
476.5625	1.1570381000638	taste	choicePhaseStart	2	79	19	foodImage.31	FOODEEG_Images\0294.jpg	YN	Left	Yes	1.1570381000638	0	244001	253
477.7109375	0	taste	response	2	79	19	foodImage.31	FOODEEG_Images\0294.jpg	YN	Left	Yes	1.1570381000638	0	244589	234
478.751953125	1	decision	trialStart	2	80	20	foodImage.87	FOODEEG_Images\0873.jpg	NY	Left	No	0.806987900054082	0	245122	251
479.80859375	2	decision	foodImageDisplay	2	80	20	foodImage.87	FOODEEG_Images\0873.jpg	NY	Left	No	0.806987900054082	0	245663	252
481.87109375	0.806987900054082	decision	choicePhaseStart	2	80	20	foodImage.87	FOODEEG_Images\0873.jpg	NY	Left	No	0.806987900054082	0	246719	253
482.669921875	0	decision	response	2	80	20	foodImage.87	FOODEEG_Images\0873.jpg	NY	Left	No	0.806987900054082	0	247128	234
483.712890625	1	taste	trialStart	2	81	21	foodImage.112	FOODEEG_Images\0920.jpg	YN	Right	No	0.760296799940988	0	247662	251
484.751953125	2	taste	foodImageDisplay	2	81	21	foodImage.112	FOODEEG_Images\0920.jpg	YN	Right	No	0.760296799940988	0	248194	252
486.814453125	0.760296799940988	taste	choicePhaseStart	2	81	21	foodImage.112	FOODEEG_Images\0920.jpg	YN	Right	No	0.760296799940988	0	249250	253
487.56640625	0	taste	response	2	81	21	foodImage.112	FOODEEG_Images\0920.jpg	YN	Right	No	0.760296799940988	0	249635	235
488.607421875	1	health	trialStart	2	82	22	foodImage.81	FOODEEG_Images\0797.jpg	YN	Left	Yes	0.701200000010431	0	250168	251
489.66796875	2	health	foodImageDisplay	2	82	22	foodImage.81	FOODEEG_Images\0797.jpg	YN	Left	Yes	0.701200000010431	0	250711	252
491.728515625	0.701200000010431	health	choicePhaseStart	2	82	22	foodImage.81	FOODEEG_Images\0797.jpg	YN	Left	Yes	0.701200000010431	0	251766	253
492.421875	0	health	response	2	82	22	foodImage.81	FOODEEG_Images\0797.jpg	YN	Left	Yes	0.701200000010431	0	252121	234
493.46484375	1	taste	trialStart	2	83	23	foodImage.95	FOODEEG_Images\0903.jpg	NY	Left	No	0.831668500090018	0	252655	251
494.50390625	2	taste	foodImageDisplay	2	83	23	foodImage.95	FOODEEG_Images\0903.jpg	NY	Left	No	0.831668500090018	0	253187	252
496.56640625	0.831668500090018	taste	choicePhaseStart	2	83	23	foodImage.95	FOODEEG_Images\0903.jpg	NY	Left	No	0.831668500090018	0	254243	253
497.388671875	0	taste	response	2	83	23	foodImage.95	FOODEEG_Images\0903.jpg	NY	Left	No	0.831668500090018	0	254664	234
498.431640625	1	taste	trialStart	2	84	24	foodImage.27	FOODEEG_Images\0263.jpg	NY	Left	No	0.861797099933028	0	255198	251
499.474609375	2	taste	foodImageDisplay	2	84	24	foodImage.27	FOODEEG_Images\0263.jpg	NY	Left	No	0.861797099933028	0	255732	252
501.537109375	0.861797099933028	taste	choicePhaseStart	2	84	24	foodImage.27	FOODEEG_Images\0263.jpg	NY	Left	No	0.861797099933028	0	256788	253
502.388671875	0	taste	response	2	84	24	foodImage.27	FOODEEG_Images\0263.jpg	NY	Left	No	0.861797099933028	0	257224	234
503.431640625	1	taste	trialStart	2	85	25	foodImage.98	FOODEEG_Images\0906.jpg	YN	Right	No	0.913398900069296	0	257758	251
504.470703125	2	taste	foodImageDisplay	2	85	25	foodImage.98	FOODEEG_Images\0906.jpg	YN	Right	No	0.913398900069296	0	258290	252
506.53125	0.913398900069296	taste	choicePhaseStart	2	85	25	foodImage.98	FOODEEG_Images\0906.jpg	YN	Right	No	0.913398900069296	0	259345	253
507.4375	0	taste	response	2	85	25	foodImage.98	FOODEEG_Images\0906.jpg	YN	Right	No	0.913398900069296	0	259809	235
508.48046875	1	health	trialStart	2	86	26	foodImage.84	FOODEEG_Images\0830.jpg	NY	Right	Yes	0.888231099816039	0	260343	251
509.54296875	2	health	foodImageDisplay	2	86	26	foodImage.84	FOODEEG_Images\0830.jpg	NY	Right	Yes	0.888231099816039	0	260887	252
511.60546875	0.888231099816039	health	choicePhaseStart	2	86	26	foodImage.84	FOODEEG_Images\0830.jpg	NY	Right	Yes	0.888231099816039	0	261943	253
512.484375	0	health	response	2	86	26	foodImage.84	FOODEEG_Images\0830.jpg	NY	Right	Yes	0.888231099816039	0	262393	235
513.52734375	1	taste	trialStart	2	87	27	foodImage.59	FOODEEG_Images\0607.jpg	NY	Right	Yes	1.17340099997818	0	262927	251
514.578125	2	taste	foodImageDisplay	2	87	27	foodImage.59	FOODEEG_Images\0607.jpg	NY	Right	Yes	1.17340099997818	0	263465	252
516.640625	1.17340099997818	taste	choicePhaseStart	2	87	27	foodImage.59	FOODEEG_Images\0607.jpg	NY	Right	Yes	1.17340099997818	0	264521	253
517.8046875	0	taste	response	2	87	27	foodImage.59	FOODEEG_Images\0607.jpg	NY	Right	Yes	1.17340099997818	0	265117	235
518.845703125	1	health	trialStart	2	88	28	foodImage.101	FOODEEG_Images\0909.jpg	YN	Right	No	0.99947279994376	0	265650	251
519.88671875	2	health	foodImageDisplay	2	88	28	foodImage.101	FOODEEG_Images\0909.jpg	YN	Right	No	0.99947279994376	0	266183	252
521.94921875	0.99947279994376	health	choicePhaseStart	2	88	28	foodImage.101	FOODEEG_Images\0909.jpg	YN	Right	No	0.99947279994376	0	267239	253
522.94140625	0	health	response	2	88	28	foodImage.101	FOODEEG_Images\0909.jpg	YN	Right	No	0.99947279994376	0	267747	235
523.982421875	1	taste	trialStart	2	89	29	foodImage.35	FOODEEG_Images\0350.jpg	YN	Left	Yes	0.65908439992927	0	268280	251
525.01953125	2	taste	foodImageDisplay	2	89	29	foodImage.35	FOODEEG_Images\0350.jpg	YN	Left	Yes	0.65908439992927	0	268811	252
527.08203125	0.65908439992927	taste	choicePhaseStart	2	89	29	foodImage.35	FOODEEG_Images\0350.jpg	YN	Left	Yes	0.65908439992927	0	269867	253
527.732421875	0	taste	response	2	89	29	foodImage.35	FOODEEG_Images\0350.jpg	YN	Left	Yes	0.65908439992927	0	270200	234
528.77734375	1	decision	trialStart	2	90	30	foodImage.103	FOODEEG_Images\0911.jpg	YN	Left	Yes	1.14324540016241	0	270735	251
529.814453125	2	decision	foodImageDisplay	2	90	30	foodImage.103	FOODEEG_Images\0911.jpg	YN	Left	Yes	1.14324540016241	0	271266	252
531.876953125	1.14324540016241	decision	choicePhaseStart	2	90	30	foodImage.103	FOODEEG_Images\0911.jpg	YN	Left	Yes	1.14324540016241	0	272322	253
533.01171875	0	decision	response	2	90	30	foodImage.103	FOODEEG_Images\0911.jpg	YN	Left	Yes	1.14324540016241	0	272903	234
534.0546875	1	health	trialStart	2	91	31	foodImage.45	FOODEEG_Images\0478.jpg	YN	Left	Yes	0.723420799942687	0	273437	251
535.09765625	2	health	foodImageDisplay	2	91	31	foodImage.45	FOODEEG_Images\0478.jpg	YN	Left	Yes	0.723420799942687	0	273971	252
537.16015625	0.723420799942687	health	choicePhaseStart	2	91	31	foodImage.45	FOODEEG_Images\0478.jpg	YN	Left	Yes	0.723420799942687	0	275027	253
537.875	0	health	response	2	91	31	foodImage.45	FOODEEG_Images\0478.jpg	YN	Left	Yes	0.723420799942687	0	275393	234
538.923828125	1	decision	trialStart	2	92	32	foodImage.44	FOODEEG_Images\0459.jpg	NY	Left	No	1.05159109993838	0	275930	251
539.970703125	2	decision	foodImageDisplay	2	92	32	foodImage.44	FOODEEG_Images\0459.jpg	NY	Left	No	1.05159109993838	0	276466	252
542.033203125	1.05159109993838	decision	choicePhaseStart	2	92	32	foodImage.44	FOODEEG_Images\0459.jpg	NY	Left	No	1.05159109993838	0	277522	253
543.076171875	0	decision	response	2	92	32	foodImage.44	FOODEEG_Images\0459.jpg	NY	Left	No	1.05159109993838	0	278056	234
544.115234375	1	decision	trialStart	2	93	33	foodImage.39	FOODEEG_Images\0367.jpg	NY	Right	Yes	1.00471489992924	0	278588	251
545.154296875	2	decision	foodImageDisplay	2	93	33	foodImage.39	FOODEEG_Images\0367.jpg	NY	Right	Yes	1.00471489992924	0	279120	252
547.216796875	1.00471489992924	decision	choicePhaseStart	2	93	33	foodImage.39	FOODEEG_Images\0367.jpg	NY	Right	Yes	1.00471489992924	0	280176	253
548.2109375	0	decision	response	2	93	33	foodImage.39	FOODEEG_Images\0367.jpg	NY	Right	Yes	1.00471489992924	0	280685	235
549.25390625	1	taste	trialStart	2	94	34	foodImage.18	FOODEEG_Images\0202.jpg	NY	Right	Yes	0.801416700007394	0	281219	251
550.30859375	2	taste	foodImageDisplay	2	94	34	foodImage.18	FOODEEG_Images\0202.jpg	NY	Right	Yes	0.801416700007394	0	281759	252
552.37109375	0.801416700007394	taste	choicePhaseStart	2	94	34	foodImage.18	FOODEEG_Images\0202.jpg	NY	Right	Yes	0.801416700007394	0	282815	253
553.1640625	0	taste	response	2	94	34	foodImage.18	FOODEEG_Images\0202.jpg	NY	Right	Yes	0.801416700007394	0	283221	235
554.203125	1	health	trialStart	2	95	35	foodImage.111	FOODEEG_Images\0919.jpg	NY	Left	No	0.795347000006586	0	283753	251
555.2421875	2	health	foodImageDisplay	2	95	35	foodImage.111	FOODEEG_Images\0919.jpg	NY	Left	No	0.795347000006586	0	284285	252
557.3046875	0.795347000006586	health	choicePhaseStart	2	95	35	foodImage.111	FOODEEG_Images\0919.jpg	NY	Left	No	0.795347000006586	0	285341	253
558.091796875	0	health	response	2	95	35	foodImage.111	FOODEEG_Images\0919.jpg	NY	Left	No	0.795347000006586	0	285744	234
559.1328125	1	decision	trialStart	2	96	36	foodImage.53	FOODEEG_Images\0547.jpg	YN	Left	Yes	1.11401399993338	0	286277	251
560.1875	2	decision	foodImageDisplay	2	96	36	foodImage.53	FOODEEG_Images\0547.jpg	YN	Left	Yes	1.11401399993338	0	286817	252
562.25	1.11401399993338	decision	choicePhaseStart	2	96	36	foodImage.53	FOODEEG_Images\0547.jpg	YN	Left	Yes	1.11401399993338	0	287873	253
563.35546875	0	decision	response	2	96	36	foodImage.53	FOODEEG_Images\0547.jpg	YN	Left	Yes	1.11401399993338	0	288439	234
564.3984375	1	decision	trialStart	2	97	37	foodImage.28	FOODEEG_Images\0273.jpg	NY	Left	No	1.24451770004816	0	288973	251
565.439453125	2	decision	foodImageDisplay	2	97	37	foodImage.28	FOODEEG_Images\0273.jpg	NY	Left	No	1.24451770004816	0	289506	252
567.501953125	1.24451770004816	decision	choicePhaseStart	2	97	37	foodImage.28	FOODEEG_Images\0273.jpg	NY	Left	No	1.24451770004816	0	290562	253
568.73828125	0	decision	response	2	97	37	foodImage.28	FOODEEG_Images\0273.jpg	NY	Left	No	1.24451770004816	0	291195	234
569.787109375	1	health	trialStart	2	98	38	foodImage.82	FOODEEG_Images\0805.jpg	YN	Left	Yes	1.2762090000324	0	291732	251
570.83984375	2	health	foodImageDisplay	2	98	38	foodImage.82	FOODEEG_Images\0805.jpg	YN	Left	Yes	1.2762090000324	0	292271	252
572.90234375	1.2762090000324	health	choicePhaseStart	2	98	38	foodImage.82	FOODEEG_Images\0805.jpg	YN	Left	Yes	1.2762090000324	0	293327	253
574.169921875	0	health	response	2	98	38	foodImage.82	FOODEEG_Images\0805.jpg	YN	Left	Yes	1.2762090000324	0	293976	234
575.21484375	1	health	trialStart	2	99	39	foodImage.89	FOODEEG_Images\0881.jpg	NY	Right	Yes	0.794573699822649	0	294511	251
576.267578125	2	health	foodImageDisplay	2	99	39	foodImage.89	FOODEEG_Images\0881.jpg	NY	Right	Yes	0.794573699822649	0	295050	252
578.330078125	0.794573699822649	health	choicePhaseStart	2	99	39	foodImage.89	FOODEEG_Images\0881.jpg	NY	Right	Yes	0.794573699822649	0	296106	253
579.11328125	0	health	response	2	99	39	foodImage.89	FOODEEG_Images\0881.jpg	NY	Right	Yes	0.794573699822649	0	296507	235
580.15625	1	taste	trialStart	2	100	40	foodImage.66	FOODEEG_Images\0676.jpg	YN	Left	Yes	2.14211919996887	0	297041	251
581.19921875	2	taste	foodImageDisplay	2	100	40	foodImage.66	FOODEEG_Images\0676.jpg	YN	Left	Yes	2.14211919996887	0	297575	252
583.26171875	2.14211919996887	taste	choicePhaseStart	2	100	40	foodImage.66	FOODEEG_Images\0676.jpg	YN	Left	Yes	2.14211919996887	0	298631	253
585.39453125	0	taste	response	2	100	40	foodImage.66	FOODEEG_Images\0676.jpg	YN	Left	Yes	2.14211919996887	0	299723	234
586.435546875	1	decision	trialStart	2	101	41	foodImage.109	FOODEEG_Images\0917.jpg	NY	Left	No	0.980242900084704	0	300256	251
587.47265625	2	decision	foodImageDisplay	2	101	41	foodImage.109	FOODEEG_Images\0917.jpg	NY	Left	No	0.980242900084704	0	300787	252
589.53515625	0.980242900084704	decision	choicePhaseStart	2	101	41	foodImage.109	FOODEEG_Images\0917.jpg	NY	Left	No	0.980242900084704	0	301843	253
590.505859375	0	decision	response	2	101	41	foodImage.109	FOODEEG_Images\0917.jpg	NY	Left	No	0.980242900084704	0	302340	234
591.546875	1	health	trialStart	2	102	42	foodImage.71	FOODEEG_Images\0713.jpg	NY	Left	No	0.942835599882528	0	302873	251
592.58984375	2	health	foodImageDisplay	2	102	42	foodImage.71	FOODEEG_Images\0713.jpg	NY	Left	No	0.942835599882528	0	303407	252
594.65234375	0.942835599882528	health	choicePhaseStart	2	102	42	foodImage.71	FOODEEG_Images\0713.jpg	NY	Left	No	0.942835599882528	0	304463	253
595.5859375	0	health	response	2	102	42	foodImage.71	FOODEEG_Images\0713.jpg	NY	Left	No	0.942835599882528	0	304941	234
596.626953125	1	health	trialStart	2	103	43	foodImage.106	FOODEEG_Images\0914.jpg	NY	Left	No	1.96101860003546	0	305474	251
597.666015625	2	health	foodImageDisplay	2	103	43	foodImage.106	FOODEEG_Images\0914.jpg	NY	Left	No	1.96101860003546	0	306006	252
599.73046875	1.96101860003546	health	choicePhaseStart	2	103	43	foodImage.106	FOODEEG_Images\0914.jpg	NY	Left	No	1.96101860003546	0	307063	253
601.681640625	0	health	response	2	103	43	foodImage.106	FOODEEG_Images\0914.jpg	NY	Left	No	1.96101860003546	0	308062	234
602.72265625	1	taste	trialStart	2	104	44	foodImage.10	FOODEEG_Images\0145.jpg	YN	Left	Yes	0.877149699954316	0	308595	251
603.783203125	2	taste	foodImageDisplay	2	104	44	foodImage.10	FOODEEG_Images\0145.jpg	YN	Left	Yes	0.877149699954316	0	309138	252
605.845703125	0.877149699954316	taste	choicePhaseStart	2	104	44	foodImage.10	FOODEEG_Images\0145.jpg	YN	Left	Yes	0.877149699954316	0	310194	253
606.712890625	0	taste	response	2	104	44	foodImage.10	FOODEEG_Images\0145.jpg	YN	Left	Yes	0.877149699954316	0	310638	234
607.755859375	1	taste	trialStart	2	105	45	foodImage.117	FOODEEG_Images\0925.jpg	YN	Left	Yes	0.854712800122797	0	311172	251
608.794921875	2	taste	foodImageDisplay	2	105	45	foodImage.117	FOODEEG_Images\0925.jpg	YN	Left	Yes	0.854712800122797	0	311704	252
610.859375	0.854712800122797	taste	choicePhaseStart	2	105	45	foodImage.117	FOODEEG_Images\0925.jpg	YN	Left	Yes	0.854712800122797	0	312761	253
611.705078125	0	taste	response	2	105	45	foodImage.117	FOODEEG_Images\0925.jpg	YN	Left	Yes	0.854712800122797	0	313194	234
612.748046875	1	taste	trialStart	2	106	46	foodImage.54	FOODEEG_Images\0560.jpg	YN	Left	Yes	0.884578600060195	0	313728	251
613.806640625	2	taste	foodImageDisplay	2	106	46	foodImage.54	FOODEEG_Images\0560.jpg	YN	Left	Yes	0.884578600060195	0	314270	252
615.869140625	0.884578600060195	taste	choicePhaseStart	2	106	46	foodImage.54	FOODEEG_Images\0560.jpg	YN	Left	Yes	0.884578600060195	0	315326	253
616.744140625	0	taste	response	2	106	46	foodImage.54	FOODEEG_Images\0560.jpg	YN	Left	Yes	0.884578600060195	0	315774	234
617.787109375	1	taste	trialStart	2	107	47	foodImage.46	FOODEEG_Images\0479.jpg	NY	Right	Yes	0.92247820016928	0	316308	251
618.84765625	2	taste	foodImageDisplay	2	107	47	foodImage.46	FOODEEG_Images\0479.jpg	NY	Right	Yes	0.92247820016928	0	316851	252
620.91015625	0.92247820016928	taste	choicePhaseStart	2	107	47	foodImage.46	FOODEEG_Images\0479.jpg	NY	Right	Yes	0.92247820016928	0	317907	253
621.82421875	0	taste	response	2	107	47	foodImage.46	FOODEEG_Images\0479.jpg	NY	Right	Yes	0.92247820016928	0	318375	235
622.8671875	1	taste	trialStart	2	108	48	foodImage.28	FOODEEG_Images\0273.jpg	YN	Right	No	0.863769799936563	0	318909	251
623.931640625	2	taste	foodImageDisplay	2	108	48	foodImage.28	FOODEEG_Images\0273.jpg	YN	Right	No	0.863769799936563	0	319454	252
625.994140625	0.863769799936563	taste	choicePhaseStart	2	108	48	foodImage.28	FOODEEG_Images\0273.jpg	YN	Right	No	0.863769799936563	0	320510	253
626.84765625	0	taste	response	2	108	48	foodImage.28	FOODEEG_Images\0273.jpg	YN	Right	No	0.863769799936563	0	320947	235
627.890625	1	taste	trialStart	2	109	49	foodImage.81	FOODEEG_Images\0797.jpg	NY	Right	Yes	0.999245399842039	0	321481	251
628.947265625	2	taste	foodImageDisplay	2	109	49	foodImage.81	FOODEEG_Images\0797.jpg	NY	Right	Yes	0.999245399842039	0	322022	252
631.009765625	0.999245399842039	taste	choicePhaseStart	2	109	49	foodImage.81	FOODEEG_Images\0797.jpg	NY	Right	Yes	0.999245399842039	0	323078	253
632	0	taste	response	2	109	49	foodImage.81	FOODEEG_Images\0797.jpg	NY	Right	Yes	0.999245399842039	0	323585	235
633.04296875	1	decision	trialStart	2	110	50	foodImage.25	FOODEEG_Images\0261.jpg	NY	Right	Yes	0.870045700110495	0	324119	251
634.0859375	2	decision	foodImageDisplay	2	110	50	foodImage.25	FOODEEG_Images\0261.jpg	NY	Right	Yes	0.870045700110495	0	324653	252
636.1484375	0.870045700110495	decision	choicePhaseStart	2	110	50	foodImage.25	FOODEEG_Images\0261.jpg	NY	Right	Yes	0.870045700110495	0	325709	253
637.0078125	0	decision	response	2	110	50	foodImage.25	FOODEEG_Images\0261.jpg	NY	Right	Yes	0.870045700110495	0	326149	235
638.048828125	1	taste	trialStart	2	111	51	foodImage.72	FOODEEG_Images\0714.jpg	NY	Right	Yes	2.63700439990498	0	326682	251
639.091796875	2	taste	foodImageDisplay	2	111	51	foodImage.72	FOODEEG_Images\0714.jpg	NY	Right	Yes	2.63700439990498	0	327216	252
641.154296875	2.63700439990498	taste	choicePhaseStart	2	111	51	foodImage.72	FOODEEG_Images\0714.jpg	NY	Right	Yes	2.63700439990498	0	328272	253
643.783203125	0	taste	response	2	111	51	foodImage.72	FOODEEG_Images\0714.jpg	NY	Right	Yes	2.63700439990498	0	329618	235
644.82421875	1	decision	trialStart	2	112	52	foodImage.119	FOODEEG_Images\0927.jpg	NY	Left	No	0.740249599795789	0	330151	251
645.861328125	2	decision	foodImageDisplay	2	112	52	foodImage.119	FOODEEG_Images\0927.jpg	NY	Left	No	0.740249599795789	0	330682	252
647.923828125	0.740249599795789	decision	choicePhaseStart	2	112	52	foodImage.119	FOODEEG_Images\0927.jpg	NY	Left	No	0.740249599795789	0	331738	253
648.65625	0	decision	response	2	112	52	foodImage.119	FOODEEG_Images\0927.jpg	NY	Left	No	0.740249599795789	0	332113	234
649.703125	1	decision	trialStart	2	113	53	foodImage.33	FOODEEG_Images\0329.jpg	NY	Right	Yes	0.703875700011849	0	332649	251
650.744140625	2	decision	foodImageDisplay	2	113	53	foodImage.33	FOODEEG_Images\0329.jpg	NY	Right	Yes	0.703875700011849	0	333182	252
652.80859375	0.703875700011849	decision	choicePhaseStart	2	113	53	foodImage.33	FOODEEG_Images\0329.jpg	NY	Right	Yes	0.703875700011849	0	334239	253
653.50390625	0	decision	response	2	113	53	foodImage.33	FOODEEG_Images\0329.jpg	NY	Right	Yes	0.703875700011849	0	334595	235
654.544921875	1	taste	trialStart	2	114	54	foodImage.6	FOODEEG_Images\0113.jpg	YN	Left	Yes	0.821342000039294	0	335128	251
655.587890625	2	taste	foodImageDisplay	2	114	54	foodImage.6	FOODEEG_Images\0113.jpg	YN	Left	Yes	0.821342000039294	0	335662	252
657.650390625	0.821342000039294	taste	choicePhaseStart	2	114	54	foodImage.6	FOODEEG_Images\0113.jpg	YN	Left	Yes	0.821342000039294	0	336718	253
658.462890625	0	taste	response	2	114	54	foodImage.6	FOODEEG_Images\0113.jpg	YN	Left	Yes	0.821342000039294	0	337134	234
659.505859375	1	health	trialStart	2	115	55	foodImage.103	FOODEEG_Images\0911.jpg	YN	Right	No	1.42502279998735	0	337668	251
660.544921875	2	health	foodImageDisplay	2	115	55	foodImage.103	FOODEEG_Images\0911.jpg	YN	Right	No	1.42502279998735	0	338200	252
662.607421875	1.42502279998735	health	choicePhaseStart	2	115	55	foodImage.103	FOODEEG_Images\0911.jpg	YN	Right	No	1.42502279998735	0	339256	253
664.0234375	0	health	response	2	115	55	foodImage.103	FOODEEG_Images\0911.jpg	YN	Right	No	1.42502279998735	0	339981	235
665.064453125	1	taste	trialStart	2	116	56	foodImage.33	FOODEEG_Images\0329.jpg	YN	Left	Yes	0.791593699948862	0	340514	251
666.10546875	2	taste	foodImageDisplay	2	116	56	foodImage.33	FOODEEG_Images\0329.jpg	YN	Left	Yes	0.791593699948862	0	341047	252
668.16796875	0.791593699948862	taste	choicePhaseStart	2	116	56	foodImage.33	FOODEEG_Images\0329.jpg	YN	Left	Yes	0.791593699948862	0	342103	253
668.951171875	0	taste	response	2	116	56	foodImage.33	FOODEEG_Images\0329.jpg	YN	Left	Yes	0.791593699948862	0	342504	234
669.9921875	1	decision	trialStart	2	117	57	foodImage.73	FOODEEG_Images\0717.jpg	YN	Left	Yes	1.08959660003893	0	343037	251
671.046875	2	decision	foodImageDisplay	2	117	57	foodImage.73	FOODEEG_Images\0717.jpg	YN	Left	Yes	1.08959660003893	0	343577	252
673.109375	1.08959660003893	decision	choicePhaseStart	2	117	57	foodImage.73	FOODEEG_Images\0717.jpg	YN	Left	Yes	1.08959660003893	0	344633	253
674.19140625	0	decision	response	2	117	57	foodImage.73	FOODEEG_Images\0717.jpg	YN	Left	Yes	1.08959660003893	0	345187	234
675.234375	1	decision	trialStart	2	118	58	foodImage.66	FOODEEG_Images\0676.jpg	NY	Right	Yes	0.765398100018501	0	345721	251
676.275390625	2	decision	foodImageDisplay	2	118	58	foodImage.66	FOODEEG_Images\0676.jpg	NY	Right	Yes	0.765398100018501	0	346254	252
678.337890625	0.765398100018501	decision	choicePhaseStart	2	118	58	foodImage.66	FOODEEG_Images\0676.jpg	NY	Right	Yes	0.765398100018501	0	347310	253
679.09375	0	decision	response	2	118	58	foodImage.66	FOODEEG_Images\0676.jpg	NY	Right	Yes	0.765398100018501	0	347697	235
680.134765625	1	decision	trialStart	2	119	59	foodImage.113	FOODEEG_Images\0921.jpg	NY	Left	No	0.76226510014385	0	348230	251
681.173828125	2	decision	foodImageDisplay	2	119	59	foodImage.113	FOODEEG_Images\0921.jpg	NY	Left	No	0.76226510014385	0	348762	252
683.236328125	0.76226510014385	decision	choicePhaseStart	2	119	59	foodImage.113	FOODEEG_Images\0921.jpg	NY	Left	No	0.76226510014385	0	349818	253
683.990234375	0	decision	response	2	119	59	foodImage.113	FOODEEG_Images\0921.jpg	NY	Left	No	0.76226510014385	0	350204	234
685.03125	1	decision	trialStart	2	120	60	foodImage.36	FOODEEG_Images\0352.jpg	NY	Right	Yes	0.792538400040939	0	350737	251
686.0859375	2	decision	foodImageDisplay	2	120	60	foodImage.36	FOODEEG_Images\0352.jpg	NY	Right	Yes	0.792538400040939	0	351277	252
688.1484375	0.792538400040939	decision	choicePhaseStart	2	120	60	foodImage.36	FOODEEG_Images\0352.jpg	NY	Right	Yes	0.792538400040939	0	352333	253
688.93359375	0	decision	response	2	120	60	foodImage.36	FOODEEG_Images\0352.jpg	NY	Right	Yes	0.792538400040939	0	352735	235
690.97265625	25.482421875	n/a	blockEnd	n/a	n/a	n/a	n/a	n/a	n/a	n/a	n/a	n/a	n/a	353779	254
716.455078125	2	n/a	blockStart	3	n/a	n/a	n/a	n/a	n/a	n/a	n/a	n/a	n/a	366826	250
718.4921875	1	health	trialStart	3	121	1	foodImage.32	FOODEEG_Images\0319.jpg	NY	Left	No	1.2410460000392	0	367869	251
719.533203125	2	health	foodImageDisplay	3	121	1	foodImage.32	FOODEEG_Images\0319.jpg	NY	Left	No	1.2410460000392	0	368402	252
721.595703125	1.2410460000392	health	choicePhaseStart	3	121	1	foodImage.32	FOODEEG_Images\0319.jpg	NY	Left	No	1.2410460000392	0	369458	253
722.828125	0	health	response	3	121	1	foodImage.32	FOODEEG_Images\0319.jpg	NY	Left	No	1.2410460000392	0	370089	234
723.87109375	1	health	trialStart	3	122	2	foodImage.27	FOODEEG_Images\0263.jpg	NY	Right	Yes	0.6598655001726	0	370623	251
724.9140625	2	health	foodImageDisplay	3	122	2	foodImage.27	FOODEEG_Images\0263.jpg	NY	Right	Yes	0.6598655001726	0	371157	252
726.9765625	0.6598655001726	health	choicePhaseStart	3	122	2	foodImage.27	FOODEEG_Images\0263.jpg	NY	Right	Yes	0.6598655001726	0	372213	253
727.62890625	0	health	response	3	122	2	foodImage.27	FOODEEG_Images\0263.jpg	NY	Right	Yes	0.6598655001726	0	372547	235
728.671875	1	taste	trialStart	3	123	3	foodImage.91	FOODEEG_Images\0896.jpg	YN	Left	Yes	1.07733489992097	0	373081	251
729.728515625	2	taste	foodImageDisplay	3	123	3	foodImage.91	FOODEEG_Images\0896.jpg	YN	Left	Yes	1.07733489992097	0	373622	252
731.791015625	1.07733489992097	taste	choicePhaseStart	3	123	3	foodImage.91	FOODEEG_Images\0896.jpg	YN	Left	Yes	1.07733489992097	0	374678	253
732.859375	0	taste	response	3	123	3	foodImage.91	FOODEEG_Images\0896.jpg	YN	Left	Yes	1.07733489992097	0	375225	234
733.90234375	1	health	trialStart	3	124	4	foodImage.96	FOODEEG_Images\0904.jpg	NY	Left	No	1.85637240018696	0	375759	251
734.94140625	2	health	foodImageDisplay	3	124	4	foodImage.96	FOODEEG_Images\0904.jpg	NY	Left	No	1.85637240018696	0	376291	252
737.00390625	1.85637240018696	health	choicePhaseStart	3	124	4	foodImage.96	FOODEEG_Images\0904.jpg	NY	Left	No	1.85637240018696	0	377347	253
738.8515625	0	health	response	3	124	4	foodImage.96	FOODEEG_Images\0904.jpg	NY	Left	No	1.85637240018696	0	378293	234
739.89453125	1	decision	trialStart	3	125	5	foodImage.40	FOODEEG_Images\0373.jpg	YN	Left	Yes	1.03760219994001	0	378827	251
740.9375	2	decision	foodImageDisplay	3	125	5	foodImage.40	FOODEEG_Images\0373.jpg	YN	Left	Yes	1.03760219994001	0	379361	252
743	1.03760219994001	decision	choicePhaseStart	3	125	5	foodImage.40	FOODEEG_Images\0373.jpg	YN	Left	Yes	1.03760219994001	0	380417	253
744.029296875	0	decision	response	3	125	5	foodImage.40	FOODEEG_Images\0373.jpg	YN	Left	Yes	1.03760219994001	0	380944	234
745.072265625	1	decision	trialStart	3	126	6	foodImage.64	FOODEEG_Images\0647.jpg	YN	Left	Yes	1.60077480017208	0	381478	251
746.134765625	2	decision	foodImageDisplay	3	126	6	foodImage.64	FOODEEG_Images\0647.jpg	YN	Left	Yes	1.60077480017208	0	382022	252
748.1953125	1.60077480017208	decision	choicePhaseStart	3	126	6	foodImage.64	FOODEEG_Images\0647.jpg	YN	Left	Yes	1.60077480017208	0	383077	253
749.787109375	0	decision	response	3	126	6	foodImage.64	FOODEEG_Images\0647.jpg	YN	Left	Yes	1.60077480017208	0	383892	234
750.8359375	1	health	trialStart	3	127	7	foodImage.107	FOODEEG_Images\0915.jpg	NY	Right	Yes	1.15469450014643	0	384429	251
751.875	2	health	foodImageDisplay	3	127	7	foodImage.107	FOODEEG_Images\0915.jpg	NY	Right	Yes	1.15469450014643	0	384961	252
753.9375	1.15469450014643	health	choicePhaseStart	3	127	7	foodImage.107	FOODEEG_Images\0915.jpg	NY	Right	Yes	1.15469450014643	0	386017	253
755.083984375	0	health	response	3	127	7	foodImage.107	FOODEEG_Images\0915.jpg	NY	Right	Yes	1.15469450014643	0	386604	235
756.126953125	1	taste	trialStart	3	128	8	foodImage.89	FOODEEG_Images\0881.jpg	NY	Right	Yes	0.966905200155452	0	387138	251
757.18359375	2	taste	foodImageDisplay	3	128	8	foodImage.89	FOODEEG_Images\0881.jpg	NY	Right	Yes	0.966905200155452	0	387679	252
759.24609375	0.966905200155452	taste	choicePhaseStart	3	128	8	foodImage.89	FOODEEG_Images\0881.jpg	NY	Right	Yes	0.966905200155452	0	388735	253
760.203125	0	taste	response	3	128	8	foodImage.89	FOODEEG_Images\0881.jpg	NY	Right	Yes	0.966905200155452	0	389225	235
761.24609375	1	decision	trialStart	3	129	9	foodImage.50	FOODEEG_Images\0529.jpg	NY	Left	No	0.862335300073028	0	389759	251
762.302734375	2	decision	foodImageDisplay	3	129	9	foodImage.50	FOODEEG_Images\0529.jpg	NY	Left	No	0.862335300073028	0	390300	252
764.365234375	0.862335300073028	decision	choicePhaseStart	3	129	9	foodImage.50	FOODEEG_Images\0529.jpg	NY	Left	No	0.862335300073028	0	391356	253
765.21875	0	decision	response	3	129	9	foodImage.50	FOODEEG_Images\0529.jpg	NY	Left	No	0.862335300073028	0	391793	234
766.26171875	1	taste	trialStart	3	130	10	foodImage.83	FOODEEG_Images\0827.jpg	YN	Right	No	1.46092660003342	0	392327	251
767.3203125	2	taste	foodImageDisplay	3	130	10	foodImage.83	FOODEEG_Images\0827.jpg	YN	Right	No	1.46092660003342	0	392869	252
769.3828125	1.46092660003342	taste	choicePhaseStart	3	130	10	foodImage.83	FOODEEG_Images\0827.jpg	YN	Right	No	1.46092660003342	0	393925	253
770.833984375	0	taste	response	3	130	10	foodImage.83	FOODEEG_Images\0827.jpg	YN	Right	No	1.46092660003342	0	394668	235
771.87890625	1	taste	trialStart	3	131	11	foodImage.4	FOODEEG_Images\0065.jpg	YN	Left	Yes	0.613312100060284	0	395203	251
772.935546875	2	taste	foodImageDisplay	3	131	11	foodImage.4	FOODEEG_Images\0065.jpg	YN	Left	Yes	0.613312100060284	0	395744	252
774.998046875	0.613312100060284	taste	choicePhaseStart	3	131	11	foodImage.4	FOODEEG_Images\0065.jpg	YN	Left	Yes	0.613312100060284	0	396800	253
775.603515625	0	taste	response	3	131	11	foodImage.4	FOODEEG_Images\0065.jpg	YN	Left	Yes	0.613312100060284	0	397110	234
776.646484375	1	taste	trialStart	3	132	12	foodImage.96	FOODEEG_Images\0904.jpg	NY	Right	Yes	1.34466279996559	0	397644	251
777.685546875	2	taste	foodImageDisplay	3	132	12	foodImage.96	FOODEEG_Images\0904.jpg	NY	Right	Yes	1.34466279996559	0	398176	252
779.748046875	1.34466279996559	taste	choicePhaseStart	3	132	12	foodImage.96	FOODEEG_Images\0904.jpg	NY	Right	Yes	1.34466279996559	0	399232	253
781.08203125	0	taste	response	3	132	12	foodImage.96	FOODEEG_Images\0904.jpg	NY	Right	Yes	1.34466279996559	0	399915	235
782.125	1	health	trialStart	3	133	13	foodImage.105	FOODEEG_Images\0913.jpg	NY	Right	Yes	1.05747490003705	0	400449	251
783.162109375	2	health	foodImageDisplay	3	133	13	foodImage.105	FOODEEG_Images\0913.jpg	NY	Right	Yes	1.05747490003705	0	400980	252
785.224609375	1.05747490003705	health	choicePhaseStart	3	133	13	foodImage.105	FOODEEG_Images\0913.jpg	NY	Right	Yes	1.05747490003705	0	402036	253
786.2734375	0	health	response	3	133	13	foodImage.105	FOODEEG_Images\0913.jpg	NY	Right	Yes	1.05747490003705	0	402573	235
787.31640625	1	decision	trialStart	3	134	14	foodImage.31	FOODEEG_Images\0294.jpg	YN	Left	Yes	1.01931100012735	0	403107	251
788.359375	2	decision	foodImageDisplay	3	134	14	foodImage.31	FOODEEG_Images\0294.jpg	YN	Left	Yes	1.01931100012735	0	403641	252
790.421875	1.01931100012735	decision	choicePhaseStart	3	134	14	foodImage.31	FOODEEG_Images\0294.jpg	YN	Left	Yes	1.01931100012735	0	404697	253
791.43359375	0	decision	response	3	134	14	foodImage.31	FOODEEG_Images\0294.jpg	YN	Left	Yes	1.01931100012735	0	405215	234
792.4765625	1	decision	trialStart	3	135	15	foodImage.6	FOODEEG_Images\0113.jpg	NY	Right	Yes	1.42241410003044	0	405749	251
793.517578125	2	decision	foodImageDisplay	3	135	15	foodImage.6	FOODEEG_Images\0113.jpg	NY	Right	Yes	1.42241410003044	0	406282	252
795.580078125	1.42241410003044	decision	choicePhaseStart	3	135	15	foodImage.6	FOODEEG_Images\0113.jpg	NY	Right	Yes	1.42241410003044	0	407338	253
796.994140625	0	decision	response	3	135	15	foodImage.6	FOODEEG_Images\0113.jpg	NY	Right	Yes	1.42241410003044	0	408062	235
798.037109375	1	taste	trialStart	3	136	16	foodImage.111	FOODEEG_Images\0919.jpg	NY	Left	No	0.866064900066704	0	408596	251
799.07421875	2	taste	foodImageDisplay	3	136	16	foodImage.111	FOODEEG_Images\0919.jpg	NY	Left	No	0.866064900066704	0	409127	252
801.134765625	0.866064900066704	taste	choicePhaseStart	3	136	16	foodImage.111	FOODEEG_Images\0919.jpg	NY	Left	No	0.866064900066704	0	410182	253
801.994140625	0	taste	response	3	136	16	foodImage.111	FOODEEG_Images\0919.jpg	NY	Left	No	0.866064900066704	0	410622	234
803.033203125	1	taste	trialStart	3	137	17	foodImage.79	FOODEEG_Images\0794.jpg	YN	Left	Yes	0.895222699968144	0	411154	251
804.076171875	2	taste	foodImageDisplay	3	137	17	foodImage.79	FOODEEG_Images\0794.jpg	YN	Left	Yes	0.895222699968144	0	411688	252
806.138671875	0.895222699968144	taste	choicePhaseStart	3	137	17	foodImage.79	FOODEEG_Images\0794.jpg	YN	Left	Yes	0.895222699968144	0	412744	253
807.025390625	0	taste	response	3	137	17	foodImage.79	FOODEEG_Images\0794.jpg	YN	Left	Yes	0.895222699968144	0	413198	234
808.064453125	1	health	trialStart	3	138	18	foodImage.73	FOODEEG_Images\0717.jpg	NY	Left	No	1.16210679989308	0	413730	251
809.123046875	2	health	foodImageDisplay	3	138	18	foodImage.73	FOODEEG_Images\0717.jpg	NY	Left	No	1.16210679989308	0	414272	252
811.18359375	1.16210679989308	health	choicePhaseStart	3	138	18	foodImage.73	FOODEEG_Images\0717.jpg	NY	Left	No	1.16210679989308	0	415327	253
812.337890625	0	health	response	3	138	18	foodImage.73	FOODEEG_Images\0717.jpg	NY	Left	No	1.16210679989308	0	415918	234
813.380859375	1	taste	trialStart	3	139	19	foodImage.65	FOODEEG_Images\0658.jpg	NY	Right	Yes	0.73331329994835	0	416452	251
814.421875	2	taste	foodImageDisplay	3	139	19	foodImage.65	FOODEEG_Images\0658.jpg	NY	Right	Yes	0.73331329994835	0	416985	252
816.484375	0.73331329994835	taste	choicePhaseStart	3	139	19	foodImage.65	FOODEEG_Images\0658.jpg	NY	Right	Yes	0.73331329994835	0	418041	253
817.208984375	0	taste	response	3	139	19	foodImage.65	FOODEEG_Images\0658.jpg	NY	Right	Yes	0.73331329994835	0	418412	235
818.251953125	1	taste	trialStart	3	140	20	foodImage.40	FOODEEG_Images\0373.jpg	NY	Right	Yes	0.86271829996258	0	418946	251
819.29296875	2	taste	foodImageDisplay	3	140	20	foodImage.40	FOODEEG_Images\0373.jpg	NY	Right	Yes	0.86271829996258	0	419479	252
821.35546875	0.86271829996258	taste	choicePhaseStart	3	140	20	foodImage.40	FOODEEG_Images\0373.jpg	NY	Right	Yes	0.86271829996258	0	420535	253
822.208984375	0	taste	response	3	140	20	foodImage.40	FOODEEG_Images\0373.jpg	NY	Right	Yes	0.86271829996258	0	420972	235
823.251953125	1	decision	trialStart	3	141	21	foodImage.51	FOODEEG_Images\0536.jpg	YN	Left	Yes	1.09876989992335	0	421506	251
824.296875	2	decision	foodImageDisplay	3	141	21	foodImage.51	FOODEEG_Images\0536.jpg	YN	Left	Yes	1.09876989992335	0	422041	252
826.359375	1.09876989992335	decision	choicePhaseStart	3	141	21	foodImage.51	FOODEEG_Images\0536.jpg	YN	Left	Yes	1.09876989992335	0	423097	253
827.44921875	0	decision	response	3	141	21	foodImage.51	FOODEEG_Images\0536.jpg	YN	Left	Yes	1.09876989992335	0	423655	234
828.4921875	1	decision	trialStart	3	142	22	foodImage.55	FOODEEG_Images\0567.jpg	YN	Left	Yes	0.829727500211447	0	424189	251
829.548828125	2	decision	foodImageDisplay	3	142	22	foodImage.55	FOODEEG_Images\0567.jpg	YN	Left	Yes	0.829727500211447	0	424730	252
831.611328125	0.829727500211447	decision	choicePhaseStart	3	142	22	foodImage.55	FOODEEG_Images\0567.jpg	YN	Left	Yes	0.829727500211447	0	425786	253
832.431640625	0	decision	response	3	142	22	foodImage.55	FOODEEG_Images\0567.jpg	YN	Left	Yes	0.829727500211447	0	426206	234
833.4765625	1	decision	trialStart	3	143	23	foodImage.1	FOODEEG_Images\0004.jpg	NY	Right	Yes	0.700835400028154	0	426741	251
834.517578125	2	decision	foodImageDisplay	3	143	23	foodImage.1	FOODEEG_Images\0004.jpg	NY	Right	Yes	0.700835400028154	0	427274	252
836.580078125	0.700835400028154	decision	choicePhaseStart	3	143	23	foodImage.1	FOODEEG_Images\0004.jpg	NY	Right	Yes	0.700835400028154	0	428330	253
837.271484375	0	decision	response	3	143	23	foodImage.1	FOODEEG_Images\0004.jpg	NY	Right	Yes	0.700835400028154	0	428684	235
838.314453125	1	decision	trialStart	3	144	24	foodImage.67	FOODEEG_Images\0679.jpg	NY	Right	Yes	0.693908300017938	0	429218	251
839.373046875	2	decision	foodImageDisplay	3	144	24	foodImage.67	FOODEEG_Images\0679.jpg	NY	Right	Yes	0.693908300017938	0	429760	252
841.435546875	0.693908300017938	decision	choicePhaseStart	3	144	24	foodImage.67	FOODEEG_Images\0679.jpg	NY	Right	Yes	0.693908300017938	0	430816	253
842.119140625	0	decision	response	3	144	24	foodImage.67	FOODEEG_Images\0679.jpg	NY	Right	Yes	0.693908300017938	0	431166	235
843.1640625	1	decision	trialStart	3	145	25	foodImage.91	FOODEEG_Images\0896.jpg	YN	Left	Yes	0.741487799910828	0	431701	251
844.220703125	2	decision	foodImageDisplay	3	145	25	foodImage.91	FOODEEG_Images\0896.jpg	YN	Left	Yes	0.741487799910828	0	432242	252
846.283203125	0.741487799910828	decision	choicePhaseStart	3	145	25	foodImage.91	FOODEEG_Images\0896.jpg	YN	Left	Yes	0.741487799910828	0	433298	253
847.015625	0	decision	response	3	145	25	foodImage.91	FOODEEG_Images\0896.jpg	YN	Left	Yes	0.741487799910828	0	433673	234
848.064453125	1	taste	trialStart	3	146	26	foodImage.5	FOODEEG_Images\0107.jpg	NY	Right	Yes	0.805987900123	0	434210	251
849.125	2	taste	foodImageDisplay	3	146	26	foodImage.5	FOODEEG_Images\0107.jpg	NY	Right	Yes	0.805987900123	0	434753	252
851.1875	0.805987900123	taste	choicePhaseStart	3	146	26	foodImage.5	FOODEEG_Images\0107.jpg	NY	Right	Yes	0.805987900123	0	435809	253
851.984375	0	taste	response	3	146	26	foodImage.5	FOODEEG_Images\0107.jpg	NY	Right	Yes	0.805987900123	0	436217	235
853.02734375	1	decision	trialStart	3	147	27	foodImage.90	FOODEEG_Images\0890.jpg	NY	Left	No	0.874005400110036	0	436751	251
854.087890625	2	decision	foodImageDisplay	3	147	27	foodImage.90	FOODEEG_Images\0890.jpg	NY	Left	No	0.874005400110036	0	437294	252
856.150390625	0.874005400110036	decision	choicePhaseStart	3	147	27	foodImage.90	FOODEEG_Images\0890.jpg	NY	Left	No	0.874005400110036	0	438350	253
857.015625	0	decision	response	3	147	27	foodImage.90	FOODEEG_Images\0890.jpg	NY	Left	No	0.874005400110036	0	438793	234
858.05859375	1	health	trialStart	3	148	28	foodImage.48	FOODEEG_Images\0494.jpg	YN	Right	No	0.934425599873066	0	439327	251
859.099609375	2	health	foodImageDisplay	3	148	28	foodImage.48	FOODEEG_Images\0494.jpg	YN	Right	No	0.934425599873066	0	439860	252
861.162109375	0.934425599873066	health	choicePhaseStart	3	148	28	foodImage.48	FOODEEG_Images\0494.jpg	YN	Right	No	0.934425599873066	0	440916	253
862.087890625	0	health	response	3	148	28	foodImage.48	FOODEEG_Images\0494.jpg	YN	Right	No	0.934425599873066	0	441390	235
863.12890625	1	health	trialStart	3	149	29	foodImage.110	FOODEEG_Images\0918.jpg	YN	Right	No	1.03957559983246	0	441923	251
864.16796875	2	health	foodImageDisplay	3	149	29	foodImage.110	FOODEEG_Images\0918.jpg	YN	Right	No	1.03957559983246	0	442455	252
866.23046875	1.03957559983246	health	choicePhaseStart	3	149	29	foodImage.110	FOODEEG_Images\0918.jpg	YN	Right	No	1.03957559983246	0	443511	253
867.263671875	0	health	response	3	149	29	foodImage.110	FOODEEG_Images\0918.jpg	YN	Right	No	1.03957559983246	0	444040	235
868.3046875	1	taste	trialStart	3	150	30	foodImage.3	FOODEEG_Images\0046.jpg	YN	Left	Yes	0.870184300001711	0	444573	251
869.345703125	2	taste	foodImageDisplay	3	150	30	foodImage.3	FOODEEG_Images\0046.jpg	YN	Left	Yes	0.870184300001711	0	445106	252
871.408203125	0.870184300001711	taste	choicePhaseStart	3	150	30	foodImage.3	FOODEEG_Images\0046.jpg	YN	Left	Yes	0.870184300001711	0	446162	253
872.271484375	0	taste	response	3	150	30	foodImage.3	FOODEEG_Images\0046.jpg	YN	Left	Yes	0.870184300001711	0	446604	234
873.310546875	1	health	trialStart	3	151	31	foodImage.15	FOODEEG_Images\0189.jpg	NY	Left	No	1.0641367000062	0	447136	251
874.3671875	2	health	foodImageDisplay	3	151	31	foodImage.15	FOODEEG_Images\0189.jpg	NY	Left	No	1.0641367000062	0	447677	252
876.4296875	1.0641367000062	health	choicePhaseStart	3	151	31	foodImage.15	FOODEEG_Images\0189.jpg	NY	Left	No	1.0641367000062	0	448733	253
877.486328125	0	health	response	3	151	31	foodImage.15	FOODEEG_Images\0189.jpg	NY	Left	No	1.0641367000062	0	449274	234
878.53125	1	taste	trialStart	3	152	32	foodImage.45	FOODEEG_Images\0478.jpg	YN	Left	Yes	1.10673090000637	0	449809	251
879.576171875	2	taste	foodImageDisplay	3	152	32	foodImage.45	FOODEEG_Images\0478.jpg	YN	Left	Yes	1.10673090000637	0	450344	252
881.642578125	1.10673090000637	taste	choicePhaseStart	3	152	32	foodImage.45	FOODEEG_Images\0478.jpg	YN	Left	Yes	1.10673090000637	0	451402	253
882.7421875	0	taste	response	3	152	32	foodImage.45	FOODEEG_Images\0478.jpg	YN	Left	Yes	1.10673090000637	0	451965	234
883.78515625	1	decision	trialStart	3	153	33	foodImage.99	FOODEEG_Images\0907.jpg	NY	Left	No	1.31973540014587	0	452499	251
884.82421875	2	decision	foodImageDisplay	3	153	33	foodImage.99	FOODEEG_Images\0907.jpg	NY	Left	No	1.31973540014587	0	453031	252
886.88671875	1.31973540014587	decision	choicePhaseStart	3	153	33	foodImage.99	FOODEEG_Images\0907.jpg	NY	Left	No	1.31973540014587	0	454087	253
888.197265625	0	decision	response	3	153	33	foodImage.99	FOODEEG_Images\0907.jpg	NY	Left	No	1.31973540014587	0	454758	234
889.240234375	1	decision	trialStart	3	154	34	foodImage.20	FOODEEG_Images\0226.jpg	NY	Left	No	1.99918020004407	0	455292	251
890.28125	2	decision	foodImageDisplay	3	154	34	foodImage.20	FOODEEG_Images\0226.jpg	NY	Left	No	1.99918020004407	0	455825	252
892.34375	1.99918020004407	decision	choicePhaseStart	3	154	34	foodImage.20	FOODEEG_Images\0226.jpg	NY	Left	No	1.99918020004407	0	456881	253
894.333984375	0	decision	response	3	154	34	foodImage.20	FOODEEG_Images\0226.jpg	NY	Left	No	1.99918020004407	0	457900	234
895.376953125	1	decision	trialStart	3	155	35	foodImage.41	FOODEEG_Images\0409.jpg	NY	Right	Yes	0.918830099981278	0	458434	251
896.42578125	2	decision	foodImageDisplay	3	155	35	foodImage.41	FOODEEG_Images\0409.jpg	NY	Right	Yes	0.918830099981278	0	458971	252
898.48828125	0.918830099981278	decision	choicePhaseStart	3	155	35	foodImage.41	FOODEEG_Images\0409.jpg	NY	Right	Yes	0.918830099981278	0	460027	253
899.3984375	0	decision	response	3	155	35	foodImage.41	FOODEEG_Images\0409.jpg	NY	Right	Yes	0.918830099981278	0	460493	235
900.44140625	1	decision	trialStart	3	156	36	foodImage.62	FOODEEG_Images\0644.jpg	NY	Right	Yes	0.671689299866557	0	461027	251
901.49609375	2	decision	foodImageDisplay	3	156	36	foodImage.62	FOODEEG_Images\0644.jpg	NY	Right	Yes	0.671689299866557	0	461567	252
903.55859375	0.671689299866557	decision	choicePhaseStart	3	156	36	foodImage.62	FOODEEG_Images\0644.jpg	NY	Right	Yes	0.671689299866557	0	462623	253
904.220703125	0	decision	response	3	156	36	foodImage.62	FOODEEG_Images\0644.jpg	NY	Right	Yes	0.671689299866557	0	462962	235
905.263671875	1	taste	trialStart	3	157	37	foodImage.116	FOODEEG_Images\0924.jpg	NY	Left	No	0.849155999952927	0	463496	251
906.302734375	2	taste	foodImageDisplay	3	157	37	foodImage.116	FOODEEG_Images\0924.jpg	NY	Left	No	0.849155999952927	0	464028	252
908.365234375	0.849155999952927	taste	choicePhaseStart	3	157	37	foodImage.116	FOODEEG_Images\0924.jpg	NY	Left	No	0.849155999952927	0	465084	253
909.205078125	0	taste	response	3	157	37	foodImage.116	FOODEEG_Images\0924.jpg	NY	Left	No	0.849155999952927	0	465514	234
910.248046875	1	taste	trialStart	3	158	38	foodImage.109	FOODEEG_Images\0917.jpg	NY	Left	No	0.753006700193509	0	466048	251
911.287109375	2	taste	foodImageDisplay	3	158	38	foodImage.109	FOODEEG_Images\0917.jpg	NY	Left	No	0.753006700193509	0	466580	252
913.34765625	0.753006700193509	taste	choicePhaseStart	3	158	38	foodImage.109	FOODEEG_Images\0917.jpg	NY	Left	No	0.753006700193509	0	467635	253
914.09375	0	taste	response	3	158	38	foodImage.109	FOODEEG_Images\0917.jpg	NY	Left	No	0.753006700193509	0	468017	234
915.13671875	1	health	trialStart	3	159	39	foodImage.83	FOODEEG_Images\0827.jpg	YN	Left	Yes	0.981539299944416	0	468551	251
916.1953125	2	health	foodImageDisplay	3	159	39	foodImage.83	FOODEEG_Images\0827.jpg	YN	Left	Yes	0.981539299944416	0	469093	252
918.2578125	0.981539299944416	health	choicePhaseStart	3	159	39	foodImage.83	FOODEEG_Images\0827.jpg	YN	Left	Yes	0.981539299944416	0	470149	253
919.228515625	0	health	response	3	159	39	foodImage.83	FOODEEG_Images\0827.jpg	YN	Left	Yes	0.981539299944416	0	470646	234
920.271484375	1	health	trialStart	3	160	40	foodImage.65	FOODEEG_Images\0658.jpg	YN	Left	Yes	1.11886930000037	0	471180	251
921.3125	2	health	foodImageDisplay	3	160	40	foodImage.65	FOODEEG_Images\0658.jpg	YN	Left	Yes	1.11886930000037	0	471713	252
923.375	1.11886930000037	health	choicePhaseStart	3	160	40	foodImage.65	FOODEEG_Images\0658.jpg	YN	Left	Yes	1.11886930000037	0	472769	253
924.484375	0	health	response	3	160	40	foodImage.65	FOODEEG_Images\0658.jpg	YN	Left	Yes	1.11886930000037	0	473337	234
925.52734375	1	health	trialStart	3	161	41	foodImage.76	FOODEEG_Images\0766.jpg	YN	Left	Yes	0.762741200160235	0	473871	251
926.572265625	2	health	foodImageDisplay	3	161	41	foodImage.76	FOODEEG_Images\0766.jpg	YN	Left	Yes	0.762741200160235	0	474406	252
928.634765625	0.762741200160235	health	choicePhaseStart	3	161	41	foodImage.76	FOODEEG_Images\0766.jpg	YN	Left	Yes	0.762741200160235	0	475462	253
929.388671875	0	health	response	3	161	41	foodImage.76	FOODEEG_Images\0766.jpg	YN	Left	Yes	0.762741200160235	0	475848	234
930.431640625	1	health	trialStart	3	162	42	foodImage.99	FOODEEG_Images\0907.jpg	NY	Left	No	1.05630289996043	0	476382	251
931.470703125	2	health	foodImageDisplay	3	162	42	foodImage.99	FOODEEG_Images\0907.jpg	NY	Left	No	1.05630289996043	0	476914	252
933.533203125	1.05630289996043	health	choicePhaseStart	3	162	42	foodImage.99	FOODEEG_Images\0907.jpg	NY	Left	No	1.05630289996043	0	477970	253
934.580078125	0	health	response	3	162	42	foodImage.99	FOODEEG_Images\0907.jpg	NY	Left	No	1.05630289996043	0	478506	234
935.62890625	1	decision	trialStart	3	163	43	foodImage.61	FOODEEG_Images\0640.jpg	YN	Right	No	1.4074756000191	0	479043	251
936.669921875	2	decision	foodImageDisplay	3	163	43	foodImage.61	FOODEEG_Images\0640.jpg	YN	Right	No	1.4074756000191	0	479576	252
938.732421875	1.4074756000191	decision	choicePhaseStart	3	163	43	foodImage.61	FOODEEG_Images\0640.jpg	YN	Right	No	1.4074756000191	0	480632	253
940.1328125	0	decision	response	3	163	43	foodImage.61	FOODEEG_Images\0640.jpg	YN	Right	No	1.4074756000191	0	481349	235
941.171875	1	taste	trialStart	3	164	44	foodImage.56	FOODEEG_Images\0586.jpg	NY	Left	No	2.01550159999169	0	481881	251
942.21484375	2	taste	foodImageDisplay	3	164	44	foodImage.56	FOODEEG_Images\0586.jpg	NY	Left	No	2.01550159999169	0	482415	252
944.27734375	2.01550159999169	taste	choicePhaseStart	3	164	44	foodImage.56	FOODEEG_Images\0586.jpg	NY	Left	No	2.01550159999169	0	483471	253
946.283203125	0	taste	response	3	164	44	foodImage.56	FOODEEG_Images\0586.jpg	NY	Left	No	2.01550159999169	0	484498	234
947.326171875	1	taste	trialStart	3	165	45	foodImage.74	FOODEEG_Images\0752.jpg	YN	Left	Yes	0.895169100025669	0	485032	251
948.3671875	2	taste	foodImageDisplay	3	165	45	foodImage.74	FOODEEG_Images\0752.jpg	YN	Left	Yes	0.895169100025669	0	485565	252
950.4296875	0.895169100025669	taste	choicePhaseStart	3	165	45	foodImage.74	FOODEEG_Images\0752.jpg	YN	Left	Yes	0.895169100025669	0	486621	253
951.31640625	0	taste	response	3	165	45	foodImage.74	FOODEEG_Images\0752.jpg	YN	Left	Yes	0.895169100025669	0	487075	234
952.359375	1	decision	trialStart	3	166	46	foodImage.11	FOODEEG_Images\0180.jpg	NY	Right	Yes	1.07458240003325	0	487609	251
953.419921875	2	decision	foodImageDisplay	3	166	46	foodImage.11	FOODEEG_Images\0180.jpg	NY	Right	Yes	1.07458240003325	0	488152	252
955.482421875	1.07458240003325	decision	choicePhaseStart	3	166	46	foodImage.11	FOODEEG_Images\0180.jpg	NY	Right	Yes	1.07458240003325	0	489208	253
956.546875	0	decision	response	3	166	46	foodImage.11	FOODEEG_Images\0180.jpg	NY	Right	Yes	1.07458240003325	0	489753	235
957.591796875	1	taste	trialStart	3	167	47	foodImage.44	FOODEEG_Images\0459.jpg	NY	Left	No	1.5840942999348	0	490288	251
958.63671875	2	taste	foodImageDisplay	3	167	47	foodImage.44	FOODEEG_Images\0459.jpg	NY	Left	No	1.5840942999348	0	490823	252
960.69921875	1.5840942999348	taste	choicePhaseStart	3	167	47	foodImage.44	FOODEEG_Images\0459.jpg	NY	Left	No	1.5840942999348	0	491879	253
962.275390625	0	taste	response	3	167	47	foodImage.44	FOODEEG_Images\0459.jpg	NY	Left	No	1.5840942999348	0	492686	234
963.318359375	1	health	trialStart	3	168	48	foodImage.53	FOODEEG_Images\0547.jpg	YN	Right	No	0.868485700106248	0	493220	251
964.376953125	2	health	foodImageDisplay	3	168	48	foodImage.53	FOODEEG_Images\0547.jpg	YN	Right	No	0.868485700106248	0	493762	252
966.439453125	0.868485700106248	health	choicePhaseStart	3	168	48	foodImage.53	FOODEEG_Images\0547.jpg	YN	Right	No	0.868485700106248	0	494818	253
967.298828125	0	health	response	3	168	48	foodImage.53	FOODEEG_Images\0547.jpg	YN	Right	No	0.868485700106248	0	495258	235
968.341796875	1	health	trialStart	3	169	49	foodImage.63	FOODEEG_Images\0645.jpg	YN	Right	No	1.08257260010578	0	495792	251
969.38671875	2	health	foodImageDisplay	3	169	49	foodImage.63	FOODEEG_Images\0645.jpg	YN	Right	No	1.08257260010578	0	496327	252
971.44921875	1.08257260010578	health	choicePhaseStart	3	169	49	foodImage.63	FOODEEG_Images\0645.jpg	YN	Right	No	1.08257260010578	0	497383	253
972.5234375	0	health	response	3	169	49	foodImage.63	FOODEEG_Images\0645.jpg	YN	Right	No	1.08257260010578	0	497933	235
973.56640625	1	health	trialStart	3	170	50	foodImage.25	FOODEEG_Images\0261.jpg	NY	Right	Yes	0.821628500008956	0	498467	251
974.607421875	2	health	foodImageDisplay	3	170	50	foodImage.25	FOODEEG_Images\0261.jpg	NY	Right	Yes	0.821628500008956	0	499000	252
976.669921875	0.821628500008956	health	choicePhaseStart	3	170	50	foodImage.25	FOODEEG_Images\0261.jpg	NY	Right	Yes	0.821628500008956	0	500056	253
977.482421875	0	health	response	3	170	50	foodImage.25	FOODEEG_Images\0261.jpg	NY	Right	Yes	0.821628500008956	0	500472	235
978.5234375	1	decision	trialStart	3	171	51	foodImage.57	FOODEEG_Images\0587.jpg	NY	Right	Yes	0.82276270003058	0	501005	251
979.56640625	2	decision	foodImageDisplay	3	171	51	foodImage.57	FOODEEG_Images\0587.jpg	NY	Right	Yes	0.82276270003058	0	501539	252
981.62890625	0.82276270003058	decision	choicePhaseStart	3	171	51	foodImage.57	FOODEEG_Images\0587.jpg	NY	Right	Yes	0.82276270003058	0	502595	253
982.443359375	0	decision	response	3	171	51	foodImage.57	FOODEEG_Images\0587.jpg	NY	Right	Yes	0.82276270003058	0	503012	235
983.486328125	1	taste	trialStart	3	172	52	foodImage.99	FOODEEG_Images\0907.jpg	YN	Right	No	1.1047940000426	0	503546	251
984.5234375	2	taste	foodImageDisplay	3	172	52	foodImage.99	FOODEEG_Images\0907.jpg	YN	Right	No	1.1047940000426	0	504077	252
986.5859375	1.1047940000426	taste	choicePhaseStart	3	172	52	foodImage.99	FOODEEG_Images\0907.jpg	YN	Right	No	1.1047940000426	0	505133	253
987.681640625	0	taste	response	3	172	52	foodImage.99	FOODEEG_Images\0907.jpg	YN	Right	No	1.1047940000426	0	505694	235
988.7265625	1	taste	trialStart	3	173	53	foodImage.64	FOODEEG_Images\0647.jpg	YN	Left	Yes	1.19609489990398	0	506229	251
989.78515625	2	taste	foodImageDisplay	3	173	53	foodImage.64	FOODEEG_Images\0647.jpg	YN	Left	Yes	1.19609489990398	0	506771	252
991.845703125	1.19609489990398	taste	choicePhaseStart	3	173	53	foodImage.64	FOODEEG_Images\0647.jpg	YN	Left	Yes	1.19609489990398	0	507826	253
993.033203125	0	taste	response	3	173	53	foodImage.64	FOODEEG_Images\0647.jpg	YN	Left	Yes	1.19609489990398	0	508434	234
994.076171875	1	decision	trialStart	3	174	54	foodImage.23	FOODEEG_Images\0244.jpg	YN	Right	No	1.71950919996016	0	508968	251
995.1171875	2	decision	foodImageDisplay	3	174	54	foodImage.23	FOODEEG_Images\0244.jpg	YN	Right	No	1.71950919996016	0	509501	252
997.1796875	1.71950919996016	decision	choicePhaseStart	3	174	54	foodImage.23	FOODEEG_Images\0244.jpg	YN	Right	No	1.71950919996016	0	510557	253
998.890625	0	decision	response	3	174	54	foodImage.23	FOODEEG_Images\0244.jpg	YN	Right	No	1.71950919996016	0	511433	235
999.93359375	1	decision	trialStart	3	175	55	foodImage.56	FOODEEG_Images\0586.jpg	YN	Right	No	0.796871100086719	0	511967	251
1000.974609375	2	decision	foodImageDisplay	3	175	55	foodImage.56	FOODEEG_Images\0586.jpg	YN	Right	No	0.796871100086719	0	512500	252
1003.037109375	0.796871100086719	decision	choicePhaseStart	3	175	55	foodImage.56	FOODEEG_Images\0586.jpg	YN	Right	No	0.796871100086719	0	513556	253
1003.826171875	0	decision	response	3	175	55	foodImage.56	FOODEEG_Images\0586.jpg	YN	Right	No	0.796871100086719	0	513960	235
1004.869140625	1	taste	trialStart	3	176	56	foodImage.36	FOODEEG_Images\0352.jpg	NY	Right	Yes	1.1238066998776	0	514494	251
1005.9296875	2	taste	foodImageDisplay	3	176	56	foodImage.36	FOODEEG_Images\0352.jpg	NY	Right	Yes	1.1238066998776	0	515037	252
1007.990234375	1.1238066998776	taste	choicePhaseStart	3	176	56	foodImage.36	FOODEEG_Images\0352.jpg	NY	Right	Yes	1.1238066998776	0	516092	253
1009.10546875	0	taste	response	3	176	56	foodImage.36	FOODEEG_Images\0352.jpg	NY	Right	Yes	1.1238066998776	0	516663	235
1010.146484375	1	taste	trialStart	3	177	57	foodImage.15	FOODEEG_Images\0189.jpg	YN	Right	No	1.35200840001926	0	517196	251
1011.203125	2	taste	foodImageDisplay	3	177	57	foodImage.15	FOODEEG_Images\0189.jpg	YN	Right	No	1.35200840001926	0	517737	252
1013.265625	1.35200840001926	taste	choicePhaseStart	3	177	57	foodImage.15	FOODEEG_Images\0189.jpg	YN	Right	No	1.35200840001926	0	518793	253
1014.609375	0	taste	response	3	177	57	foodImage.15	FOODEEG_Images\0189.jpg	YN	Right	No	1.35200840001926	0	519481	235
1015.650390625	1	health	trialStart	3	178	58	foodImage.115	FOODEEG_Images\0923.jpg	NY	Left	No	1.59395050001331	0	520014	251
1016.689453125	2	health	foodImageDisplay	3	178	58	foodImage.115	FOODEEG_Images\0923.jpg	NY	Left	No	1.59395050001331	0	520546	252
1018.751953125	1.59395050001331	health	choicePhaseStart	3	178	58	foodImage.115	FOODEEG_Images\0923.jpg	NY	Left	No	1.59395050001331	0	521602	253
1020.337890625	0	health	response	3	178	58	foodImage.115	FOODEEG_Images\0923.jpg	NY	Left	No	1.59395050001331	0	522414	234
1021.376953125	1	decision	trialStart	3	179	59	foodImage.63	FOODEEG_Images\0645.jpg	NY	Left	No	1.00908460002393	0	522946	251
1022.41796875	2	decision	foodImageDisplay	3	179	59	foodImage.63	FOODEEG_Images\0645.jpg	NY	Left	No	1.00908460002393	0	523479	252
1024.48046875	1.00908460002393	decision	choicePhaseStart	3	179	59	foodImage.63	FOODEEG_Images\0645.jpg	NY	Left	No	1.00908460002393	0	524535	253
1025.48046875	0	decision	response	3	179	59	foodImage.63	FOODEEG_Images\0645.jpg	NY	Left	No	1.00908460002393	0	525047	234
1026.5234375	1	health	trialStart	3	180	60	foodImage.87	FOODEEG_Images\0873.jpg	YN	Left	Yes	0.997585099888965	0	525581	251
1027.58203125	2	health	foodImageDisplay	3	180	60	foodImage.87	FOODEEG_Images\0873.jpg	YN	Left	Yes	0.997585099888965	0	526123	252
1029.64453125	0.997585099888965	health	choicePhaseStart	3	180	60	foodImage.87	FOODEEG_Images\0873.jpg	YN	Left	Yes	0.997585099888965	0	527179	253
1030.6328125	0	health	response	3	180	60	foodImage.87	FOODEEG_Images\0873.jpg	YN	Left	Yes	0.997585099888965	0	527685	234
1032.67578125	15.87109375	n/a	blockEnd	n/a	n/a	n/a	n/a	n/a	n/a	n/a	n/a	n/a	n/a	528731	254
1048.546875	2	n/a	blockStart	4	n/a	n/a	n/a	n/a	n/a	n/a	n/a	n/a	n/a	536857	250
1050.580078125	1	health	trialStart	4	181	1	foodImage.59	FOODEEG_Images\0607.jpg	YN	Right	No	2.76318169990554	0	537898	251
1051.626953125	2	health	foodImageDisplay	4	181	1	foodImage.59	FOODEEG_Images\0607.jpg	YN	Right	No	2.76318169990554	0	538434	252
1053.693359375	2.76318169990554	health	choicePhaseStart	4	181	1	foodImage.59	FOODEEG_Images\0607.jpg	YN	Right	No	2.76318169990554	0	539492	253
1056.447265625	0	health	response	4	181	1	foodImage.59	FOODEEG_Images\0607.jpg	YN	Right	No	2.76318169990554	0	540902	235
1057.494140625	1	taste	trialStart	4	182	2	foodImage.48	FOODEEG_Images\0494.jpg	NY	Right	Yes	1.28326259995811	0	541438	251
1058.53515625	2	taste	foodImageDisplay	4	182	2	foodImage.48	FOODEEG_Images\0494.jpg	NY	Right	Yes	1.28326259995811	0	541971	252
1060.59765625	1.28326259995811	taste	choicePhaseStart	4	182	2	foodImage.48	FOODEEG_Images\0494.jpg	NY	Right	Yes	1.28326259995811	0	543027	253
1061.87109375	0	taste	response	4	182	2	foodImage.48	FOODEEG_Images\0494.jpg	NY	Right	Yes	1.28326259995811	0	543679	235
1062.9140625	1	decision	trialStart	4	183	3	foodImage.58	FOODEEG_Images\0605.jpg	YN	Left	Yes	1.27428160002455	0	544213	251
1063.974609375	2	decision	foodImageDisplay	4	183	3	foodImage.58	FOODEEG_Images\0605.jpg	YN	Left	Yes	1.27428160002455	0	544756	252
1066.037109375	1.27428160002455	decision	choicePhaseStart	4	183	3	foodImage.58	FOODEEG_Images\0605.jpg	YN	Left	Yes	1.27428160002455	0	545812	253
1067.302734375	0	decision	response	4	183	3	foodImage.58	FOODEEG_Images\0605.jpg	YN	Left	Yes	1.27428160002455	0	546460	234
1068.34765625	1	decision	trialStart	4	184	4	foodImage.3	FOODEEG_Images\0046.jpg	NY	Right	Yes	0.716577699873596	0	546995	251
1069.388671875	2	decision	foodImageDisplay	4	184	4	foodImage.3	FOODEEG_Images\0046.jpg	NY	Right	Yes	0.716577699873596	0	547528	252
1071.451171875	0.716577699873596	decision	choicePhaseStart	4	184	4	foodImage.3	FOODEEG_Images\0046.jpg	NY	Right	Yes	0.716577699873596	0	548584	253
1072.158203125	0	decision	response	4	184	4	foodImage.3	FOODEEG_Images\0046.jpg	NY	Right	Yes	0.716577699873596	0	548946	235
1073.21484375	1	taste	trialStart	4	185	5	foodImage.103	FOODEEG_Images\0911.jpg	NY	Right	Yes	0.8587154999841	0	549487	251
1074.25390625	2	taste	foodImageDisplay	4	185	5	foodImage.103	FOODEEG_Images\0911.jpg	NY	Right	Yes	0.8587154999841	0	550019	252
1076.31640625	0.8587154999841	taste	choicePhaseStart	4	185	5	foodImage.103	FOODEEG_Images\0911.jpg	NY	Right	Yes	0.8587154999841	0	551075	253
1077.166015625	0	taste	response	4	185	5	foodImage.103	FOODEEG_Images\0911.jpg	NY	Right	Yes	0.8587154999841	0	551510	235
1078.208984375	1	taste	trialStart	4	186	6	foodImage.17	FOODEEG_Images\0199.jpg	NY	Right	Yes	0.772189600160345	0	552044	251
1079.25390625	2	taste	foodImageDisplay	4	186	6	foodImage.17	FOODEEG_Images\0199.jpg	NY	Right	Yes	0.772189600160345	0	552579	252
1081.314453125	0.772189600160345	taste	choicePhaseStart	4	186	6	foodImage.17	FOODEEG_Images\0199.jpg	NY	Right	Yes	0.772189600160345	0	553634	253
1082.078125	0	taste	response	4	186	6	foodImage.17	FOODEEG_Images\0199.jpg	NY	Right	Yes	0.772189600160345	0	554025	235
1083.123046875	1	decision	trialStart	4	187	7	foodImage.38	FOODEEG_Images\0365.jpg	NY	Right	Yes	0.864329699892551	0	554560	251
1084.16015625	2	decision	foodImageDisplay	4	187	7	foodImage.38	FOODEEG_Images\0365.jpg	NY	Right	Yes	0.864329699892551	0	555091	252
1086.22265625	0.864329699892551	decision	choicePhaseStart	4	187	7	foodImage.38	FOODEEG_Images\0365.jpg	NY	Right	Yes	0.864329699892551	0	556147	253
1087.078125	0	decision	response	4	187	7	foodImage.38	FOODEEG_Images\0365.jpg	NY	Right	Yes	0.864329699892551	0	556585	235
1088.12109375	1	health	trialStart	4	188	8	foodImage.50	FOODEEG_Images\0529.jpg	YN	Left	Yes	0.925409500021487	0	557119	251
1089.1796875	2	health	foodImageDisplay	4	188	8	foodImage.50	FOODEEG_Images\0529.jpg	YN	Left	Yes	0.925409500021487	0	557661	252
1091.2421875	0.925409500021487	health	choicePhaseStart	4	188	8	foodImage.50	FOODEEG_Images\0529.jpg	YN	Left	Yes	0.925409500021487	0	558717	253
1092.158203125	0	health	response	4	188	8	foodImage.50	FOODEEG_Images\0529.jpg	YN	Left	Yes	0.925409500021487	0	559186	234
1093.201171875	1	decision	trialStart	4	189	9	foodImage.43	FOODEEG_Images\0445.jpg	YN	Right	No	1.44210330001079	0	559720	251
1094.259765625	2	decision	foodImageDisplay	4	189	9	foodImage.43	FOODEEG_Images\0445.jpg	YN	Right	No	1.44210330001079	0	560262	252
1096.322265625	1.44210330001079	decision	choicePhaseStart	4	189	9	foodImage.43	FOODEEG_Images\0445.jpg	YN	Right	No	1.44210330001079	0	561318	253
1097.7578125	0	decision	response	4	189	9	foodImage.43	FOODEEG_Images\0445.jpg	YN	Right	No	1.44210330001079	0	562053	235
1098.798828125	1	taste	trialStart	4	190	10	foodImage.1	FOODEEG_Images\0004.jpg	NY	Right	Yes	0.824478200171143	0	562586	251
1099.83984375	2	taste	foodImageDisplay	4	190	10	foodImage.1	FOODEEG_Images\0004.jpg	NY	Right	Yes	0.824478200171143	0	563119	252
1101.90234375	0.824478200171143	taste	choicePhaseStart	4	190	10	foodImage.1	FOODEEG_Images\0004.jpg	NY	Right	Yes	0.824478200171143	0	564175	253
1102.716796875	0	taste	response	4	190	10	foodImage.1	FOODEEG_Images\0004.jpg	NY	Right	Yes	0.824478200171143	0	564592	235
1103.759765625	1	taste	trialStart	4	191	11	foodImage.113	FOODEEG_Images\0921.jpg	NY	Left	No	2.09724330017343	0	565126	251
1104.798828125	2	taste	foodImageDisplay	4	191	11	foodImage.113	FOODEEG_Images\0921.jpg	NY	Left	No	2.09724330017343	0	565658	252
1106.861328125	2.09724330017343	taste	choicePhaseStart	4	191	11	foodImage.113	FOODEEG_Images\0921.jpg	NY	Left	No	2.09724330017343	0	566714	253
1108.94921875	0	taste	response	4	191	11	foodImage.113	FOODEEG_Images\0921.jpg	NY	Left	No	2.09724330017343	0	567783	234
1109.990234375	1	decision	trialStart	4	192	12	foodImage.107	FOODEEG_Images\0915.jpg	YN	Left	Yes	0.756118299905211	0	568316	251
1111.02734375	2	decision	foodImageDisplay	4	192	12	foodImage.107	FOODEEG_Images\0915.jpg	YN	Left	Yes	0.756118299905211	0	568847	252
1113.08984375	0.756118299905211	decision	choicePhaseStart	4	192	12	foodImage.107	FOODEEG_Images\0915.jpg	YN	Left	Yes	0.756118299905211	0	569903	253
1113.837890625	0	decision	response	4	192	12	foodImage.107	FOODEEG_Images\0915.jpg	YN	Left	Yes	0.756118299905211	0	570286	234
1114.880859375	1	health	trialStart	4	193	13	foodImage.7	FOODEEG_Images\0116.jpg	YN	Right	No	0.989253900013864	0	570820	251
1115.923828125	2	health	foodImageDisplay	4	193	13	foodImage.7	FOODEEG_Images\0116.jpg	YN	Right	No	0.989253900013864	0	571354	252
1117.984375	0.989253900013864	health	choicePhaseStart	4	193	13	foodImage.7	FOODEEG_Images\0116.jpg	YN	Right	No	0.989253900013864	0	572409	253
1118.96484375	0	health	response	4	193	13	foodImage.7	FOODEEG_Images\0116.jpg	YN	Right	No	0.989253900013864	0	572911	235
1120.0078125	1	taste	trialStart	4	194	14	foodImage.14	FOODEEG_Images\0188.jpg	NY	Right	Yes	0.872480500023812	0	573445	251
1121.0625	2	taste	foodImageDisplay	4	194	14	foodImage.14	FOODEEG_Images\0188.jpg	NY	Right	Yes	0.872480500023812	0	573985	252
1123.125	0.872480500023812	taste	choicePhaseStart	4	194	14	foodImage.14	FOODEEG_Images\0188.jpg	NY	Right	Yes	0.872480500023812	0	575041	253
1123.98828125	0	taste	response	4	194	14	foodImage.14	FOODEEG_Images\0188.jpg	NY	Right	Yes	0.872480500023812	0	575483	235
1125.03125	1	health	trialStart	4	195	15	foodImage.9	FOODEEG_Images\0138.jpg	YN	Right	No	0.941267700167373	0	576017	251
1126.087890625	2	health	foodImageDisplay	4	195	15	foodImage.9	FOODEEG_Images\0138.jpg	YN	Right	No	0.941267700167373	0	576558	252
1128.150390625	0.941267700167373	health	choicePhaseStart	4	195	15	foodImage.9	FOODEEG_Images\0138.jpg	YN	Right	No	0.941267700167373	0	577614	253
