onset	duration	trial_type	event_type	block	trial_total	trial_in_block	food_image_code	food_image_path	button_position	resp_position	resp_choice	choice_rt	resp_too_slow	sample	trigger
401.91796875	2	n/a	blockStart	1	n/a	n/a	n/a	n/a	n/a	n/a	n/a	n/a	n/a	205783	250
403.955078125	1	health	trialStart	1	1	1	foodImage.58	FOODEEG_Images\0605.jpg	NY	Right	Yes	0.937089399900287	0	206826	251
405.015625	2	health	foodImageDisplay	1	1	1	foodImage.58	FOODEEG_Images\0605.jpg	NY	Right	Yes	0.937089399900287	0	207369	252
407.078125	0.937089399900287	health	choicePhaseStart	1	1	1	foodImage.58	FOODEEG_Images\0605.jpg	NY	Right	Yes	0.937089399900287	0	208425	253
408.0078125	0	health	response	1	1	1	foodImage.58	FOODEEG_Images\0605.jpg	NY	Right	Yes	0.937089399900287	0	208901	235
409.126953125	1	health	trialStart	1	2	2	foodImage.23	FOODEEG_Images\0244.jpg	NY	Right	Yes	0.73251529969275	0	209474	251
410.171875	2	health	foodImageDisplay	1	2	2	foodImage.23	FOODEEG_Images\0244.jpg	NY	Right	Yes	0.73251529969275	0	210009	252
412.236328125	0.73251529969275	health	choicePhaseStart	1	2	2	foodImage.23	FOODEEG_Images\0244.jpg	NY	Right	Yes	0.73251529969275	0	211066	253
412.958984375	0	health	response	1	2	2	foodImage.23	FOODEEG_Images\0244.jpg	NY	Right	Yes	0.73251529969275	0	211436	235
414.015625	1	health	trialStart	1	3	3	foodImage.102	FOODEEG_Images\0910.jpg	NY	Left	No	1.94223720021546	0	211977	251
415.056640625	2	health	foodImageDisplay	1	3	3	foodImage.102	FOODEEG_Images\0910.jpg	NY	Left	No	1.94223720021546	0	212510	252
417.12109375	1.94223720021546	health	choicePhaseStart	1	3	3	foodImage.102	FOODEEG_Images\0910.jpg	NY	Left	No	1.94223720021546	0	213567	253
419.0546875	0	health	response	1	3	3	foodImage.102	FOODEEG_Images\0910.jpg	NY	Left	No	1.94223720021546	0	214557	234
420.09765625	1	decision	trialStart	1	4	4	foodImage.2	FOODEEG_Images\0028.jpg	YN	Left	Yes	0.95726490020752	0	215091	251
421.138671875	2	decision	foodImageDisplay	1	4	4	foodImage.2	FOODEEG_Images\0028.jpg	YN	Left	Yes	0.95726490020752	0	215624	252
423.203125	0.95726490020752	decision	choicePhaseStart	1	4	4	foodImage.2	FOODEEG_Images\0028.jpg	YN	Left	Yes	0.95726490020752	0	216681	253
424.150390625	0	decision	response	1	4	4	foodImage.2	FOODEEG_Images\0028.jpg	YN	Left	Yes	0.95726490020752	0	217166	234
425.203125	1	decision	trialStart	1	5	5	foodImage.77	FOODEEG_Images\0771.jpg	NY	Right	Yes	0.819310400169343	0	217705	251
426.25	2	decision	foodImageDisplay	1	5	5	foodImage.77	FOODEEG_Images\0771.jpg	NY	Right	Yes	0.819310400169343	0	218241	252
428.31640625	0.819310400169343	decision	choicePhaseStart	1	5	5	foodImage.77	FOODEEG_Images\0771.jpg	NY	Right	Yes	0.819310400169343	0	219299	253
429.126953125	0	decision	response	1	5	5	foodImage.77	FOODEEG_Images\0771.jpg	NY	Right	Yes	0.819310400169343	0	219714	235
430.181640625	1	health	trialStart	1	6	6	foodImage.65	FOODEEG_Images\0658.jpg	YN	Left	Yes	0.981975799892098	0	220254	251
431.224609375	2	health	foodImageDisplay	1	6	6	foodImage.65	FOODEEG_Images\0658.jpg	YN	Left	Yes	0.981975799892098	0	220788	252
433.2890625	0.981975799892098	health	choicePhaseStart	1	6	6	foodImage.65	FOODEEG_Images\0658.jpg	YN	Left	Yes	0.981975799892098	0	221845	253
434.263671875	0	health	response	1	6	6	foodImage.65	FOODEEG_Images\0658.jpg	YN	Left	Yes	0.981975799892098	0	222344	234
435.3046875	1	decision	trialStart	1	7	7	foodImage.98	FOODEEG_Images\0906.jpg	NY	Right	Yes	0.88706750003621	0	222877	251
436.3515625	2	decision	foodImageDisplay	1	7	7	foodImage.98	FOODEEG_Images\0906.jpg	NY	Right	Yes	0.88706750003621	0	223413	252
438.4140625	0.88706750003621	decision	choicePhaseStart	1	7	7	foodImage.98	FOODEEG_Images\0906.jpg	NY	Right	Yes	0.88706750003621	0	224469	253
439.294921875	0	decision	response	1	7	7	foodImage.98	FOODEEG_Images\0906.jpg	NY	Right	Yes	0.88706750003621	0	224920	235
440.337890625	1	taste	trialStart	1	8	8	foodImage.84	FOODEEG_Images\0830.jpg	NY	Right	Yes	0.83568049967289	0	225454	251
441.39453125	2	taste	foodImageDisplay	1	8	8	foodImage.84	FOODEEG_Images\0830.jpg	NY	Right	Yes	0.83568049967289	0	225995	252
443.458984375	0.83568049967289	taste	choicePhaseStart	1	8	8	foodImage.84	FOODEEG_Images\0830.jpg	NY	Right	Yes	0.83568049967289	0	227052	253
444.287109375	0	taste	response	1	8	8	foodImage.84	FOODEEG_Images\0830.jpg	NY	Right	Yes	0.83568049967289	0	227476	235
445.33203125	1	taste	trialStart	1	9	9	foodImage.2	FOODEEG_Images\0028.jpg	YN	Left	Yes	0.833166500087827	0	228011	251
446.373046875	2	taste	foodImageDisplay	1	9	9	foodImage.2	FOODEEG_Images\0028.jpg	YN	Left	Yes	0.833166500087827	0	228544	252
448.435546875	0.833166500087827	taste	choicePhaseStart	1	9	9	foodImage.2	FOODEEG_Images\0028.jpg	YN	Left	Yes	0.833166500087827	0	229600	253
449.26171875	0	taste	response	1	9	9	foodImage.2	FOODEEG_Images\0028.jpg	YN	Left	Yes	0.833166500087827	0	230023	234
450.306640625	1	taste	trialStart	1	10	10	foodImage.106	FOODEEG_Images\0914.jpg	NY	Right	Yes	0.78069069981575	0	230558	251
451.34765625	2	taste	foodImageDisplay	1	10	10	foodImage.106	FOODEEG_Images\0914.jpg	NY	Right	Yes	0.78069069981575	0	231091	252
453.41015625	0.78069069981575	taste	choicePhaseStart	1	10	10	foodImage.106	FOODEEG_Images\0914.jpg	NY	Right	Yes	0.78069069981575	0	232147	253
454.181640625	0	taste	response	1	10	10	foodImage.106	FOODEEG_Images\0914.jpg	NY	Right	Yes	0.78069069981575	0	232542	235
455.224609375	1	taste	trialStart	1	11	11	foodImage.79	FOODEEG_Images\0794.jpg	YN	Left	Yes	0.777131699956954	0	233076	251
456.26953125	2	taste	foodImageDisplay	1	11	11	foodImage.79	FOODEEG_Images\0794.jpg	YN	Left	Yes	0.777131699956954	0	233611	252
458.33203125	0.777131699956954	taste	choicePhaseStart	1	11	11	foodImage.79	FOODEEG_Images\0794.jpg	YN	Left	Yes	0.777131699956954	0	234667	253
459.103515625	0	taste	response	1	11	11	foodImage.79	FOODEEG_Images\0794.jpg	YN	Left	Yes	0.777131699956954	0	235062	234
460.142578125	1	taste	trialStart	1	12	12	foodImage.80	FOODEEG_Images\0796.jpg	YN	Left	Yes	0.71746370010078	0	235594	251
461.19921875	2	taste	foodImageDisplay	1	12	12	foodImage.80	FOODEEG_Images\0796.jpg	YN	Left	Yes	0.71746370010078	0	236135	252
463.263671875	0.71746370010078	taste	choicePhaseStart	1	12	12	foodImage.80	FOODEEG_Images\0796.jpg	YN	Left	Yes	0.71746370010078	0	237192	253
463.97265625	0	taste	response	1	12	12	foodImage.80	FOODEEG_Images\0796.jpg	YN	Left	Yes	0.71746370010078	0	237555	234
465.015625	1	taste	trialStart	1	13	13	foodImage.58	FOODEEG_Images\0605.jpg	NY	Right	Yes	1.37663269974291	0	238089	251
466.0703125	2	taste	foodImageDisplay	1	13	13	foodImage.58	FOODEEG_Images\0605.jpg	NY	Right	Yes	1.37663269974291	0	238629	252
468.1328125	1.37663269974291	taste	choicePhaseStart	1	13	13	foodImage.58	FOODEEG_Images\0605.jpg	NY	Right	Yes	1.37663269974291	0	239685	253
469.501953125	0	taste	response	1	13	13	foodImage.58	FOODEEG_Images\0605.jpg	NY	Right	Yes	1.37663269974291	0	240386	235
470.54296875	1	taste	trialStart	1	14	14	foodImage.5	FOODEEG_Images\0107.jpg	YN	Left	Yes	0.735472800210118	0	240919	251
471.6171875	2	taste	foodImageDisplay	1	14	14	foodImage.5	FOODEEG_Images\0107.jpg	YN	Left	Yes	0.735472800210118	0	241469	252
473.6796875	0.735472800210118	taste	choicePhaseStart	1	14	14	foodImage.5	FOODEEG_Images\0107.jpg	YN	Left	Yes	0.735472800210118	0	242525	253
474.404296875	0	taste	response	1	14	14	foodImage.5	FOODEEG_Images\0107.jpg	YN	Left	Yes	0.735472800210118	0	242896	234
475.447265625	1	decision	trialStart	1	15	15	foodImage.116	FOODEEG_Images\0924.jpg	YN	Left	Yes	1.13462539995089	0	243430	251
476.48828125	2	decision	foodImageDisplay	1	15	15	foodImage.116	FOODEEG_Images\0924.jpg	YN	Left	Yes	1.13462539995089	0	243963	252
478.55078125	1.13462539995089	decision	choicePhaseStart	1	15	15	foodImage.116	FOODEEG_Images\0924.jpg	YN	Left	Yes	1.13462539995089	0	245019	253
479.677734375	0	decision	response	1	15	15	foodImage.116	FOODEEG_Images\0924.jpg	YN	Left	Yes	1.13462539995089	0	245596	234
480.71875	1	health	trialStart	1	16	16	foodImage.39	FOODEEG_Images\0367.jpg	YN	Right	No	1.00016659963876	0	246129	251
481.759765625	2	health	foodImageDisplay	1	16	16	foodImage.39	FOODEEG_Images\0367.jpg	YN	Right	No	1.00016659963876	0	246662	252
483.822265625	1.00016659963876	health	choicePhaseStart	1	16	16	foodImage.39	FOODEEG_Images\0367.jpg	YN	Right	No	1.00016659963876	0	247718	253
484.814453125	0	health	response	1	16	16	foodImage.39	FOODEEG_Images\0367.jpg	YN	Right	No	1.00016659963876	0	248226	235
485.859375	1	taste	trialStart	1	17	17	foodImage.53	FOODEEG_Images\0547.jpg	YN	Left	Yes	0.770712799858302	0	248761	251
486.916015625	2	taste	foodImageDisplay	1	17	17	foodImage.53	FOODEEG_Images\0547.jpg	YN	Left	Yes	0.770712799858302	0	249302	252
488.978515625	0.770712799858302	taste	choicePhaseStart	1	17	17	foodImage.53	FOODEEG_Images\0547.jpg	YN	Left	Yes	0.770712799858302	0	250358	253
489.740234375	0	taste	response	1	17	17	foodImage.53	FOODEEG_Images\0547.jpg	YN	Left	Yes	0.770712799858302	0	250748	234
490.783203125	1	health	trialStart	1	18	18	foodImage.3	FOODEEG_Images\0046.jpg	YN	Right	No	1.00989260012284	0	251282	251
491.828125	2	health	foodImageDisplay	1	18	18	foodImage.3	FOODEEG_Images\0046.jpg	YN	Right	No	1.00989260012284	0	251817	252
493.890625	1.00989260012284	health	choicePhaseStart	1	18	18	foodImage.3	FOODEEG_Images\0046.jpg	YN	Right	No	1.00989260012284	0	252873	253
494.892578125	0	health	response	1	18	18	foodImage.3	FOODEEG_Images\0046.jpg	YN	Right	No	1.00989260012284	0	253386	235
495.943359375	1	taste	trialStart	1	19	19	foodImage.11	FOODEEG_Images\0180.jpg	YN	Left	Yes	1.09489439986646	0	253924	251
496.984375	2	taste	foodImageDisplay	1	19	19	foodImage.11	FOODEEG_Images\0180.jpg	YN	Left	Yes	1.09489439986646	0	254457	252
499.046875	1.09489439986646	taste	choicePhaseStart	1	19	19	foodImage.11	FOODEEG_Images\0180.jpg	YN	Left	Yes	1.09489439986646	0	255513	253
500.1328125	0	taste	response	1	19	19	foodImage.11	FOODEEG_Images\0180.jpg	YN	Left	Yes	1.09489439986646	0	256069	234
501.173828125	1	health	trialStart	1	20	20	foodImage.62	FOODEEG_Images\0644.jpg	NY	Right	Yes	1.20970689971	0	256602	251
502.228515625	2	health	foodImageDisplay	1	20	20	foodImage.62	FOODEEG_Images\0644.jpg	NY	Right	Yes	1.20970689971	0	257142	252
504.2890625	1.20970689971	health	choicePhaseStart	1	20	20	foodImage.62	FOODEEG_Images\0644.jpg	NY	Right	Yes	1.20970689971	0	258197	253
505.4921875	0	health	response	1	20	20	foodImage.62	FOODEEG_Images\0644.jpg	NY	Right	Yes	1.20970689971	0	258813	235
506.537109375	1	taste	trialStart	1	21	21	foodImage.63	FOODEEG_Images\0645.jpg	YN	Left	Yes	1.21958679985255	0	259348	251
507.578125	2	taste	foodImageDisplay	1	21	21	foodImage.63	FOODEEG_Images\0645.jpg	YN	Left	Yes	1.21958679985255	0	259881	252
509.640625	1.21958679985255	taste	choicePhaseStart	1	21	21	foodImage.63	FOODEEG_Images\0645.jpg	YN	Left	Yes	1.21958679985255	0	260937	253
510.8515625	0	taste	response	1	21	21	foodImage.63	FOODEEG_Images\0645.jpg	YN	Left	Yes	1.21958679985255	0	261557	234
511.892578125	1	taste	trialStart	1	22	22	foodImage.93	FOODEEG_Images\0901.jpg	NY	Left	No	1.08076429972425	0	262090	251
512.931640625	2	taste	foodImageDisplay	1	22	22	foodImage.93	FOODEEG_Images\0901.jpg	NY	Left	No	1.08076429972425	0	262622	252
514.994140625	1.08076429972425	taste	choicePhaseStart	1	22	22	foodImage.93	FOODEEG_Images\0901.jpg	NY	Left	No	1.08076429972425	0	263678	253
516.06640625	0	taste	response	1	22	22	foodImage.93	FOODEEG_Images\0901.jpg	NY	Left	No	1.08076429972425	0	264227	234
517.107421875	1	decision	trialStart	1	23	23	foodImage.13	FOODEEG_Images\0183.jpg	YN	Left	Yes	0.822335899807513	0	264760	251
518.1484375	2	decision	foodImageDisplay	1	23	23	foodImage.13	FOODEEG_Images\0183.jpg	YN	Left	Yes	0.822335899807513	0	265293	252
520.212890625	0.822335899807513	decision	choicePhaseStart	1	23	23	foodImage.13	FOODEEG_Images\0183.jpg	YN	Left	Yes	0.822335899807513	0	266350	253
521.02734375	0	decision	response	1	23	23	foodImage.13	FOODEEG_Images\0183.jpg	YN	Left	Yes	0.822335899807513	0	266767	234
522.0703125	1	taste	trialStart	1	24	24	foodImage.46	FOODEEG_Images\0479.jpg	YN	Left	Yes	0.740841399878263	0	267301	251
523.12890625	2	taste	foodImageDisplay	1	24	24	foodImage.46	FOODEEG_Images\0479.jpg	YN	Left	Yes	0.740841399878263	0	267843	252
525.19140625	0.740841399878263	taste	choicePhaseStart	1	24	24	foodImage.46	FOODEEG_Images\0479.jpg	YN	Left	Yes	0.740841399878263	0	268899	253
525.923828125	0	taste	response	1	24	24	foodImage.46	FOODEEG_Images\0479.jpg	YN	Left	Yes	0.740841399878263	0	269274	234
526.966796875	1	decision	trialStart	1	25	25	foodImage.111	FOODEEG_Images\0919.jpg	YN	Right	No	1.39133340027183	0	269808	251
528.005859375	2	decision	foodImageDisplay	1	25	25	foodImage.111	FOODEEG_Images\0919.jpg	YN	Right	No	1.39133340027183	0	270340	252
530.068359375	1.39133340027183	decision	choicePhaseStart	1	25	25	foodImage.111	FOODEEG_Images\0919.jpg	YN	Right	No	1.39133340027183	0	271396	253
531.451171875	0	decision	response	1	25	25	foodImage.111	FOODEEG_Images\0919.jpg	YN	Right	No	1.39133340027183	0	272104	235
532.4921875	1	decision	trialStart	1	26	26	foodImage.92	FOODEEG_Images\0900.jpg	YN	Right	No	0.921727099921554	0	272637	251
533.53125	2	decision	foodImageDisplay	1	26	26	foodImage.92	FOODEEG_Images\0900.jpg	YN	Right	No	0.921727099921554	0	273169	252
535.59375	0.921727099921554	decision	choicePhaseStart	1	26	26	foodImage.92	FOODEEG_Images\0900.jpg	YN	Right	No	0.921727099921554	0	274225	253
536.505859375	0	decision	response	1	26	26	foodImage.92	FOODEEG_Images\0900.jpg	YN	Right	No	0.921727099921554	0	274692	235
537.548828125	1	health	trialStart	1	27	27	foodImage.95	FOODEEG_Images\0903.jpg	YN	Right	No	1.37594390008599	0	275226	251
538.587890625	2	health	foodImageDisplay	1	27	27	foodImage.95	FOODEEG_Images\0903.jpg	YN	Right	No	1.37594390008599	0	275758	252
540.65234375	1.37594390008599	health	choicePhaseStart	1	27	27	foodImage.95	FOODEEG_Images\0903.jpg	YN	Right	No	1.37594390008599	0	276815	253
542.017578125	0	health	response	1	27	27	foodImage.95	FOODEEG_Images\0903.jpg	YN	Right	No	1.37594390008599	0	277514	235
543.0625	1	health	trialStart	1	28	28	foodImage.14	FOODEEG_Images\0188.jpg	NY	Right	Yes	1.78914940031245	0	278049	251
544.119140625	2	health	foodImageDisplay	1	28	28	foodImage.14	FOODEEG_Images\0188.jpg	NY	Right	Yes	1.78914940031245	0	278590	252
546.181640625	1.78914940031245	health	choicePhaseStart	1	28	28	foodImage.14	FOODEEG_Images\0188.jpg	NY	Right	Yes	1.78914940031245	0	279646	253
547.9609375	0	health	response	1	28	28	foodImage.14	FOODEEG_Images\0188.jpg	NY	Right	Yes	1.78914940031245	0	280557	235
549.005859375	1	taste	trialStart	1	29	29	foodImage.57	FOODEEG_Images\0587.jpg	NY	Right	Yes	0.857764800079167	0	281092	251
550.05078125	2	taste	foodImageDisplay	1	29	29	foodImage.57	FOODEEG_Images\0587.jpg	NY	Right	Yes	0.857764800079167	0	281627	252
552.11328125	0.857764800079167	taste	choicePhaseStart	1	29	29	foodImage.57	FOODEEG_Images\0587.jpg	NY	Right	Yes	0.857764800079167	0	282683	253
552.962890625	0	taste	response	1	29	29	foodImage.57	FOODEEG_Images\0587.jpg	NY	Right	Yes	0.857764800079167	0	283118	235
554.005859375	1	decision	trialStart	1	30	30	foodImage.9	FOODEEG_Images\0138.jpg	YN	Left	Yes	0.93939259974286	0	283652	251
555.064453125	2	decision	foodImageDisplay	1	30	30	foodImage.9	FOODEEG_Images\0138.jpg	YN	Left	Yes	0.93939259974286	0	284194	252
557.126953125	0.93939259974286	decision	choicePhaseStart	1	30	30	foodImage.9	FOODEEG_Images\0138.jpg	YN	Left	Yes	0.93939259974286	0	285250	253
558.056640625	0	decision	response	1	30	30	foodImage.9	FOODEEG_Images\0138.jpg	YN	Left	Yes	0.93939259974286	0	285726	234
559.10546875	1	decision	trialStart	1	31	31	foodImage.15	FOODEEG_Images\0189.jpg	NY	Right	Yes	0.842776800040156	0	286263	251
560.162109375	2	decision	foodImageDisplay	1	31	31	foodImage.15	FOODEEG_Images\0189.jpg	NY	Right	Yes	0.842776800040156	0	286804	252
562.22265625	0.842776800040156	decision	choicePhaseStart	1	31	31	foodImage.15	FOODEEG_Images\0189.jpg	NY	Right	Yes	0.842776800040156	0	287859	253
563.056640625	0	decision	response	1	31	31	foodImage.15	FOODEEG_Images\0189.jpg	NY	Right	Yes	0.842776800040156	0	288286	235
564.103515625	1	health	trialStart	1	32	32	foodImage.63	FOODEEG_Images\0645.jpg	NY	Left	No	1.13259679963812	0	288822	251
565.14453125	2	health	foodImageDisplay	1	32	32	foodImage.63	FOODEEG_Images\0645.jpg	NY	Left	No	1.13259679963812	0	289355	252
567.20703125	1.13259679963812	health	choicePhaseStart	1	32	32	foodImage.63	FOODEEG_Images\0645.jpg	NY	Left	No	1.13259679963812	0	290411	253
568.330078125	0	health	response	1	32	32	foodImage.63	FOODEEG_Images\0645.jpg	NY	Left	No	1.13259679963812	0	290986	234
569.37109375	1	taste	trialStart	1	33	33	foodImage.65	FOODEEG_Images\0658.jpg	NY	Right	Yes	0.9775685002096	0	291519	251
570.41015625	2	taste	foodImageDisplay	1	33	33	foodImage.65	FOODEEG_Images\0658.jpg	NY	Right	Yes	0.9775685002096	0	292051	252
572.47265625	0.9775685002096	taste	choicePhaseStart	1	33	33	foodImage.65	FOODEEG_Images\0658.jpg	NY	Right	Yes	0.9775685002096	0	293107	253
573.44140625	0	taste	response	1	33	33	foodImage.65	FOODEEG_Images\0658.jpg	NY	Right	Yes	0.9775685002096	0	293603	235
574.48046875	1	health	trialStart	1	34	34	foodImage.111	FOODEEG_Images\0919.jpg	YN	Left	Yes	1.68563459999859	0	294135	251
575.517578125	2	health	foodImageDisplay	1	34	34	foodImage.111	FOODEEG_Images\0919.jpg	YN	Left	Yes	1.68563459999859	0	294666	252
577.580078125	1.68563459999859	health	choicePhaseStart	1	34	34	foodImage.111	FOODEEG_Images\0919.jpg	YN	Left	Yes	1.68563459999859	0	295722	253
579.2578125	0	health	response	1	34	34	foodImage.111	FOODEEG_Images\0919.jpg	YN	Left	Yes	1.68563459999859	0	296581	234
580.30078125	1	decision	trialStart	1	35	35	foodImage.41	FOODEEG_Images\0409.jpg	YN	Left	Yes	0.81537379976362	0	297115	251
581.35546875	2	decision	foodImageDisplay	1	35	35	foodImage.41	FOODEEG_Images\0409.jpg	YN	Left	Yes	0.81537379976362	0	297655	252
583.41796875	0.81537379976362	decision	choicePhaseStart	1	35	35	foodImage.41	FOODEEG_Images\0409.jpg	YN	Left	Yes	0.81537379976362	0	298711	253
584.224609375	0	decision	response	1	35	35	foodImage.41	FOODEEG_Images\0409.jpg	YN	Left	Yes	0.81537379976362	0	299124	234
585.267578125	1	health	trialStart	1	36	36	foodImage.5	FOODEEG_Images\0107.jpg	NY	Left	No	0.956810900010169	0	299658	251
586.326171875	2	health	foodImageDisplay	1	36	36	foodImage.5	FOODEEG_Images\0107.jpg	NY	Left	No	0.956810900010169	0	300200	252
588.390625	0.956810900010169	health	choicePhaseStart	1	36	36	foodImage.5	FOODEEG_Images\0107.jpg	NY	Left	No	0.956810900010169	0	301257	253
589.3359375	0	health	response	1	36	36	foodImage.5	FOODEEG_Images\0107.jpg	NY	Left	No	0.956810900010169	0	301741	234
590.380859375	1	health	trialStart	1	37	37	foodImage.1	FOODEEG_Images\0004.jpg	YN	Right	No	1.50119860004634	0	302276	251
591.4296875	2	health	foodImageDisplay	1	37	37	foodImage.1	FOODEEG_Images\0004.jpg	YN	Right	No	1.50119860004634	0	302813	252
593.4921875	1.50119860004634	health	choicePhaseStart	1	37	37	foodImage.1	FOODEEG_Images\0004.jpg	YN	Right	No	1.50119860004634	0	303869	253
594.984375	0	health	response	1	37	37	foodImage.1	FOODEEG_Images\0004.jpg	YN	Right	No	1.50119860004634	0	304633	235
596.029296875	1	health	trialStart	1	38	38	foodImage.107	FOODEEG_Images\0915.jpg	YN	Right	No	1.20804090006277	0	305168	251
597.06640625	2	health	foodImageDisplay	1	38	38	foodImage.107	FOODEEG_Images\0915.jpg	YN	Right	No	1.20804090006277	0	305699	252
599.130859375	1.20804090006277	health	choicePhaseStart	1	38	38	foodImage.107	FOODEEG_Images\0915.jpg	YN	Right	No	1.20804090006277	0	306756	253
600.328125	0	health	response	1	38	38	foodImage.107	FOODEEG_Images\0915.jpg	YN	Right	No	1.20804090006277	0	307369	235
601.37109375	1	taste	trialStart	1	39	39	foodImage.41	FOODEEG_Images\0409.jpg	NY	Right	Yes	0.994279300328344	0	307903	251
602.41796875	2	taste	foodImageDisplay	1	39	39	foodImage.41	FOODEEG_Images\0409.jpg	NY	Right	Yes	0.994279300328344	0	308439	252
604.48046875	0.994279300328344	taste	choicePhaseStart	1	39	39	foodImage.41	FOODEEG_Images\0409.jpg	NY	Right	Yes	0.994279300328344	0	309495	253
605.46484375	0	taste	response	1	39	39	foodImage.41	FOODEEG_Images\0409.jpg	NY	Right	Yes	0.994279300328344	0	309999	235
606.5078125	1	health	trialStart	1	40	40	foodImage.110	FOODEEG_Images\0918.jpg	NY	Left	No	1.55242899991572	0	310533	251
607.544921875	2	health	foodImageDisplay	1	40	40	foodImage.110	FOODEEG_Images\0918.jpg	NY	Left	No	1.55242899991572	0	311064	252
609.609375	1.55242899991572	health	choicePhaseStart	1	40	40	foodImage.110	FOODEEG_Images\0918.jpg	NY	Left	No	1.55242899991572	0	312121	253
611.15234375	0	health	response	1	40	40	foodImage.110	FOODEEG_Images\0918.jpg	NY	Left	No	1.55242899991572	0	312911	234
612.1953125	1	decision	trialStart	1	41	41	foodImage.87	FOODEEG_Images\0873.jpg	NY	Right	Yes	0.803251799661666	0	313445	251
613.255859375	2	decision	foodImageDisplay	1	41	41	foodImage.87	FOODEEG_Images\0873.jpg	NY	Right	Yes	0.803251799661666	0	313988	252
615.318359375	0.803251799661666	decision	choicePhaseStart	1	41	41	foodImage.87	FOODEEG_Images\0873.jpg	NY	Right	Yes	0.803251799661666	0	315044	253
616.111328125	0	decision	response	1	41	41	foodImage.87	FOODEEG_Images\0873.jpg	NY	Right	Yes	0.803251799661666	0	315450	235
617.154296875	1	decision	trialStart	1	42	42	foodImage.49	FOODEEG_Images\0515.jpg	NY	Right	Yes	0.836556800175458	0	315984	251
618.197265625	2	decision	foodImageDisplay	1	42	42	foodImage.49	FOODEEG_Images\0515.jpg	NY	Right	Yes	0.836556800175458	0	316518	252
620.259765625	0.836556800175458	decision	choicePhaseStart	1	42	42	foodImage.49	FOODEEG_Images\0515.jpg	NY	Right	Yes	0.836556800175458	0	317574	253
621.087890625	0	decision	response	1	42	42	foodImage.49	FOODEEG_Images\0515.jpg	NY	Right	Yes	0.836556800175458	0	317998	235
622.130859375	1	health	trialStart	1	43	43	foodImage.84	FOODEEG_Images\0830.jpg	YN	Left	Yes	1.21584869967774	0	318532	251
623.185546875	2	health	foodImageDisplay	1	43	43	foodImage.84	FOODEEG_Images\0830.jpg	YN	Left	Yes	1.21584869967774	0	319072	252
625.248046875	1.21584869967774	health	choicePhaseStart	1	43	43	foodImage.84	FOODEEG_Images\0830.jpg	YN	Left	Yes	1.21584869967774	0	320128	253
626.455078125	0	health	response	1	43	43	foodImage.84	FOODEEG_Images\0830.jpg	YN	Left	Yes	1.21584869967774	0	320746	234
627.498046875	1	health	trialStart	1	44	44	foodImage.59	FOODEEG_Images\0607.jpg	NY	Left	No	1.16619479982182	0	321280	251
628.546875	2	health	foodImageDisplay	1	44	44	foodImage.59	FOODEEG_Images\0607.jpg	NY	Left	No	1.16619479982182	0	321817	252
630.609375	1.16619479982182	health	choicePhaseStart	1	44	44	foodImage.59	FOODEEG_Images\0607.jpg	NY	Left	No	1.16619479982182	0	322873	253
631.767578125	0	health	response	1	44	44	foodImage.59	FOODEEG_Images\0607.jpg	NY	Left	No	1.16619479982182	0	323466	234
632.806640625	1	taste	trialStart	1	45	45	foodImage.55	FOODEEG_Images\0567.jpg	YN	Left	Yes	0.938647500239313	0	323998	251
633.86328125	2	taste	foodImageDisplay	1	45	45	foodImage.55	FOODEEG_Images\0567.jpg	YN	Left	Yes	0.938647500239313	0	324539	252
635.92578125	0.938647500239313	taste	choicePhaseStart	1	45	45	foodImage.55	FOODEEG_Images\0567.jpg	YN	Left	Yes	0.938647500239313	0	325595	253
636.85546875	0	taste	response	1	45	45	foodImage.55	FOODEEG_Images\0567.jpg	YN	Left	Yes	0.938647500239313	0	326071	234
637.89453125	1	health	trialStart	1	46	46	foodImage.91	FOODEEG_Images\0896.jpg	NY	Left	No	1.0971272001043	0	326603	251
638.951171875	2	health	foodImageDisplay	1	46	46	foodImage.91	FOODEEG_Images\0896.jpg	NY	Left	No	1.0971272001043	0	327144	252
641.013671875	1.0971272001043	health	choicePhaseStart	1	46	46	foodImage.91	FOODEEG_Images\0896.jpg	NY	Left	No	1.0971272001043	0	328200	253
642.1015625	0	health	response	1	46	46	foodImage.91	FOODEEG_Images\0896.jpg	NY	Left	No	1.0971272001043	0	328757	234
643.146484375	1	health	trialStart	1	47	47	foodImage.93	FOODEEG_Images\0901.jpg	YN	Right	No	1.21680249972269	0	329292	251
644.18359375	2	health	foodImageDisplay	1	47	47	foodImage.93	FOODEEG_Images\0901.jpg	YN	Right	No	1.21680249972269	0	329823	252
646.24609375	1.21680249972269	health	choicePhaseStart	1	47	47	foodImage.93	FOODEEG_Images\0901.jpg	YN	Right	No	1.21680249972269	0	330879	253
647.453125	0	health	response	1	47	47	foodImage.93	FOODEEG_Images\0901.jpg	YN	Right	No	1.21680249972269	0	331497	235
648.498046875	1	taste	trialStart	1	48	48	foodImage.4	FOODEEG_Images\0065.jpg	YN	Left	Yes	0.794337099883705	0	332032	251
649.55859375	2	taste	foodImageDisplay	1	48	48	foodImage.4	FOODEEG_Images\0065.jpg	YN	Left	Yes	0.794337099883705	0	332575	252
651.62109375	0.794337099883705	taste	choicePhaseStart	1	48	48	foodImage.4	FOODEEG_Images\0065.jpg	YN	Left	Yes	0.794337099883705	0	333631	253
652.40625	0	taste	response	1	48	48	foodImage.4	FOODEEG_Images\0065.jpg	YN	Left	Yes	0.794337099883705	0	334033	234
653.44921875	1	health	trialStart	1	49	49	foodImage.94	FOODEEG_Images\0902.jpg	YN	Right	No	1.71867430023849	0	334567	251
654.48828125	2	health	foodImageDisplay	1	49	49	foodImage.94	FOODEEG_Images\0902.jpg	YN	Right	No	1.71867430023849	0	335099	252
656.55078125	1.71867430023849	health	choicePhaseStart	1	49	49	foodImage.94	FOODEEG_Images\0902.jpg	YN	Right	No	1.71867430023849	0	336155	253
658.26171875	0	health	response	1	49	49	foodImage.94	FOODEEG_Images\0902.jpg	YN	Right	No	1.71867430023849	0	337031	235
659.302734375	1	health	trialStart	1	50	50	foodImage.7	FOODEEG_Images\0116.jpg	YN	Right	No	1.26460669981316	0	337564	251
660.34375	2	health	foodImageDisplay	1	50	50	foodImage.7	FOODEEG_Images\0116.jpg	YN	Right	No	1.26460669981316	0	338097	252
662.40625	1.26460669981316	health	choicePhaseStart	1	50	50	foodImage.7	FOODEEG_Images\0116.jpg	YN	Right	No	1.26460669981316	0	339153	253
663.662109375	0	health	response	1	50	50	foodImage.7	FOODEEG_Images\0116.jpg	YN	Right	No	1.26460669981316	0	339796	235
664.705078125	1	health	trialStart	1	51	51	foodImage.70	FOODEEG_Images\0705.jpg	NY	Left	No	0.863263800274581	0	340330	251
665.76171875	2	health	foodImageDisplay	1	51	51	foodImage.70	FOODEEG_Images\0705.jpg	NY	Left	No	0.863263800274581	0	340871	252
667.82421875	0.863263800274581	health	choicePhaseStart	1	51	51	foodImage.70	FOODEEG_Images\0705.jpg	NY	Left	No	0.863263800274581	0	341927	253
668.677734375	0	health	response	1	51	51	foodImage.70	FOODEEG_Images\0705.jpg	NY	Left	No	0.863263800274581	0	342364	234
669.720703125	1	taste	trialStart	1	52	52	foodImage.82	FOODEEG_Images\0805.jpg	NY	Right	Yes	0.859032199718058	0	342898	251
670.7890625	2	taste	foodImageDisplay	1	52	52	foodImage.82	FOODEEG_Images\0805.jpg	NY	Right	Yes	0.859032199718058	0	343445	252
672.8515625	0.859032199718058	taste	choicePhaseStart	1	52	52	foodImage.82	FOODEEG_Images\0805.jpg	NY	Right	Yes	0.859032199718058	0	344501	253
673.701171875	0	taste	response	1	52	52	foodImage.82	FOODEEG_Images\0805.jpg	NY	Right	Yes	0.859032199718058	0	344936	235
674.744140625	1	health	trialStart	1	53	53	foodImage.115	FOODEEG_Images\0923.jpg	NY	Left	No	1.60025369981304	0	345470	251
675.783203125	2	health	foodImageDisplay	1	53	53	foodImage.115	FOODEEG_Images\0923.jpg	NY	Left	No	1.60025369981304	0	346002	252
677.845703125	1.60025369981304	health	choicePhaseStart	1	53	53	foodImage.115	FOODEEG_Images\0923.jpg	NY	Left	No	1.60025369981304	0	347058	253
679.4375	0	health	response	1	53	53	foodImage.115	FOODEEG_Images\0923.jpg	NY	Left	No	1.60025369981304	0	347873	234
680.48046875	1	decision	trialStart	1	54	54	foodImage.18	FOODEEG_Images\0202.jpg	NY	Right	Yes	1.44378249999136	0	348407	251
681.5390625	2	decision	foodImageDisplay	1	54	54	foodImage.18	FOODEEG_Images\0202.jpg	NY	Right	Yes	1.44378249999136	0	348949	252
683.6015625	1.44378249999136	decision	choicePhaseStart	1	54	54	foodImage.18	FOODEEG_Images\0202.jpg	NY	Right	Yes	1.44378249999136	0	350005	253
685.037109375	0	decision	response	1	54	54	foodImage.18	FOODEEG_Images\0202.jpg	NY	Right	Yes	1.44378249999136	0	350740	235
686.08203125	1	taste	trialStart	1	55	55	foodImage.62	FOODEEG_Images\0644.jpg	NY	Right	Yes	1.32138280011714	0	351275	251
687.140625	2	taste	foodImageDisplay	1	55	55	foodImage.62	FOODEEG_Images\0644.jpg	NY	Right	Yes	1.32138280011714	0	351817	252
689.205078125	1.32138280011714	taste	choicePhaseStart	1	55	55	foodImage.62	FOODEEG_Images\0644.jpg	NY	Right	Yes	1.32138280011714	0	352874	253
690.517578125	0	taste	response	1	55	55	foodImage.62	FOODEEG_Images\0644.jpg	NY	Right	Yes	1.32138280011714	0	353546	235
691.560546875	1	decision	trialStart	1	56	56	foodImage.16	FOODEEG_Images\0196.jpg	NY	Right	Yes	1.09187580039725	0	354080	251
692.619140625	2	decision	foodImageDisplay	1	56	56	foodImage.16	FOODEEG_Images\0196.jpg	NY	Right	Yes	1.09187580039725	0	354622	252
694.681640625	1.09187580039725	decision	choicePhaseStart	1	56	56	foodImage.16	FOODEEG_Images\0196.jpg	NY	Right	Yes	1.09187580039725	0	355678	253
695.763671875	0	decision	response	1	56	56	foodImage.16	FOODEEG_Images\0196.jpg	NY	Right	Yes	1.09187580039725	0	356232	235
696.806640625	1	health	trialStart	1	57	57	foodImage.86	FOODEEG_Images\0844.jpg	NY	Left	No	1.22793099982664	0	356766	251
697.865234375	2	health	foodImageDisplay	1	57	57	foodImage.86	FOODEEG_Images\0844.jpg	NY	Left	No	1.22793099982664	0	357308	252
699.927734375	1.22793099982664	health	choicePhaseStart	1	57	57	foodImage.86	FOODEEG_Images\0844.jpg	NY	Left	No	1.22793099982664	0	358364	253
701.1484375	0	health	response	1	57	57	foodImage.86	FOODEEG_Images\0844.jpg	NY	Left	No	1.22793099982664	0	358989	234
702.197265625	1	health	trialStart	1	58	58	foodImage.22	FOODEEG_Images\0236.jpg	NY	Right	Yes	1.24003110034391	0	359526	251
703.23828125	2	health	foodImageDisplay	1	58	58	foodImage.22	FOODEEG_Images\0236.jpg	NY	Right	Yes	1.24003110034391	0	360059	252
705.30078125	1.24003110034391	health	choicePhaseStart	1	58	58	foodImage.22	FOODEEG_Images\0236.jpg	NY	Right	Yes	1.24003110034391	0	361115	253
706.53125	0	health	response	1	58	58	foodImage.22	FOODEEG_Images\0236.jpg	NY	Right	Yes	1.24003110034391	0	361745	235
707.576171875	1	taste	trialStart	1	59	59	foodImage.45	FOODEEG_Images\0478.jpg	YN	Left	Yes	0.951783500146121	0	362280	251
708.623046875	2	taste	foodImageDisplay	1	59	59	foodImage.45	FOODEEG_Images\0478.jpg	YN	Left	Yes	0.951783500146121	0	362816	252
710.685546875	0.951783500146121	taste	choicePhaseStart	1	59	59	foodImage.45	FOODEEG_Images\0478.jpg	YN	Left	Yes	0.951783500146121	0	363872	253
711.626953125	0	taste	response	1	59	59	foodImage.45	FOODEEG_Images\0478.jpg	YN	Left	Yes	0.951783500146121	0	364354	234
712.669921875	1	health	trialStart	1	60	60	foodImage.56	FOODEEG_Images\0586.jpg	YN	Left	Yes	1.76474219979718	0	364888	251
713.712890625	2	health	foodImageDisplay	1	60	60	foodImage.56	FOODEEG_Images\0586.jpg	YN	Left	Yes	1.76474219979718	0	365422	252
715.775390625	1.76474219979718	health	choicePhaseStart	1	60	60	foodImage.56	FOODEEG_Images\0586.jpg	YN	Left	Yes	1.76474219979718	0	366478	253
717.53125	0	health	response	1	60	60	foodImage.56	FOODEEG_Images\0586.jpg	YN	Left	Yes	1.76474219979718	0	367377	234
719.572265625	11.1875	n/a	blockEnd	n/a	n/a	n/a	n/a	n/a	n/a	n/a	n/a	n/a	n/a	368422	254
730.759765625	2	n/a	blockStart	2	n/a	n/a	n/a	n/a	n/a	n/a	n/a	n/a	n/a	374150	250
732.79296875	1	health	trialStart	2	61	1	foodImage.15	FOODEEG_Images\0189.jpg	YN	Right	No	1.09571219980717	0	375191	251
733.8515625	2	health	foodImageDisplay	2	61	1	foodImage.15	FOODEEG_Images\0189.jpg	YN	Right	No	1.09571219980717	0	375733	252
735.916015625	1.09571219980717	health	choicePhaseStart	2	61	1	foodImage.15	FOODEEG_Images\0189.jpg	YN	Right	No	1.09571219980717	0	376790	253
737.00390625	0	health	response	2	61	1	foodImage.15	FOODEEG_Images\0189.jpg	YN	Right	No	1.09571219980717	0	377347	235
738.044921875	1	decision	trialStart	2	62	2	foodImage.64	FOODEEG_Images\0647.jpg	NY	Right	Yes	0.883882600348443	0	377880	251
739.10546875	2	decision	foodImageDisplay	2	62	2	foodImage.64	FOODEEG_Images\0647.jpg	NY	Right	Yes	0.883882600348443	0	378423	252
741.16796875	0.883882600348443	decision	choicePhaseStart	2	62	2	foodImage.64	FOODEEG_Images\0647.jpg	NY	Right	Yes	0.883882600348443	0	379479	253
742.04296875	0	decision	response	2	62	2	foodImage.64	FOODEEG_Images\0647.jpg	NY	Right	Yes	0.883882600348443	0	379927	235
743.08984375	1	taste	trialStart	2	63	3	foodImage.78	FOODEEG_Images\0787.jpg	NY	Right	Yes	1.41309179970995	0	380463	251
744.134765625	2	taste	foodImageDisplay	2	63	3	foodImage.78	FOODEEG_Images\0787.jpg	NY	Right	Yes	1.41309179970995	0	380998	252
746.197265625	1.41309179970995	taste	choicePhaseStart	2	63	3	foodImage.78	FOODEEG_Images\0787.jpg	NY	Right	Yes	1.41309179970995	0	382054	253
747.6015625	0	taste	response	2	63	3	foodImage.78	FOODEEG_Images\0787.jpg	NY	Right	Yes	1.41309179970995	0	382773	235
748.64453125	1	decision	trialStart	2	64	4	foodImage.83	FOODEEG_Images\0827.jpg	NY	Right	Yes	0.866222099866718	0	383307	251
749.705078125	2	decision	foodImageDisplay	2	64	4	foodImage.83	FOODEEG_Images\0827.jpg	NY	Right	Yes	0.866222099866718	0	383850	252
751.767578125	0.866222099866718	decision	choicePhaseStart	2	64	4	foodImage.83	FOODEEG_Images\0827.jpg	NY	Right	Yes	0.866222099866718	0	384906	253
752.626953125	0	decision	response	2	64	4	foodImage.83	FOODEEG_Images\0827.jpg	NY	Right	Yes	0.866222099866718	0	385346	235
753.669921875	1	health	trialStart	2	65	5	foodImage.89	FOODEEG_Images\0881.jpg	NY	Right	Yes	1.04687010031193	0	385880	251
754.724609375	2	health	foodImageDisplay	2	65	5	foodImage.89	FOODEEG_Images\0881.jpg	NY	Right	Yes	1.04687010031193	0	386420	252
756.787109375	1.04687010031193	health	choicePhaseStart	2	65	5	foodImage.89	FOODEEG_Images\0881.jpg	NY	Right	Yes	1.04687010031193	0	387476	253
757.826171875	0	health	response	2	65	5	foodImage.89	FOODEEG_Images\0881.jpg	NY	Right	Yes	1.04687010031193	0	388008	235
758.865234375	1	decision	trialStart	2	66	6	foodImage.119	FOODEEG_Images\0927.jpg	NY	Left	No	1.44424310000613	0	388540	251
759.904296875	2	decision	foodImageDisplay	2	66	6	foodImage.119	FOODEEG_Images\0927.jpg	NY	Left	No	1.44424310000613	0	389072	252
761.966796875	1.44424310000613	decision	choicePhaseStart	2	66	6	foodImage.119	FOODEEG_Images\0927.jpg	NY	Left	No	1.44424310000613	0	390128	253
763.40234375	0	decision	response	2	66	6	foodImage.119	FOODEEG_Images\0927.jpg	NY	Left	No	1.44424310000613	0	390863	234
764.44921875	1	health	trialStart	2	67	7	foodImage.49	FOODEEG_Images\0515.jpg	YN	Left	Yes	1.96252080006525	0	391399	251
765.490234375	2	health	foodImageDisplay	2	67	7	foodImage.49	FOODEEG_Images\0515.jpg	YN	Left	Yes	1.96252080006525	0	391932	252
767.55078125	1.96252080006525	health	choicePhaseStart	2	67	7	foodImage.49	FOODEEG_Images\0515.jpg	YN	Left	Yes	1.96252080006525	0	392987	253
769.505859375	0	health	response	2	67	7	foodImage.49	FOODEEG_Images\0515.jpg	YN	Left	Yes	1.96252080006525	0	393988	234
770.5546875	1	decision	trialStart	2	68	8	foodImage.58	FOODEEG_Images\0605.jpg	NY	Right	Yes	1.87031369982287	0	394525	251
771.61328125	2	decision	foodImageDisplay	2	68	8	foodImage.58	FOODEEG_Images\0605.jpg	NY	Right	Yes	1.87031369982287	0	395067	252
773.67578125	1.87031369982287	decision	choicePhaseStart	2	68	8	foodImage.58	FOODEEG_Images\0605.jpg	NY	Right	Yes	1.87031369982287	0	396123	253
775.537109375	0	decision	response	2	68	8	foodImage.58	FOODEEG_Images\0605.jpg	NY	Right	Yes	1.87031369982287	0	397076	235
776.587890625	1	taste	trialStart	2	69	9	foodImage.94	FOODEEG_Images\0902.jpg	NY	Right	Yes	1.18678360013291	0	397614	251
777.625	2	taste	foodImageDisplay	2	69	9	foodImage.94	FOODEEG_Images\0902.jpg	NY	Right	Yes	1.18678360013291	0	398145	252
779.6875	1.18678360013291	taste	choicePhaseStart	2	69	9	foodImage.94	FOODEEG_Images\0902.jpg	NY	Right	Yes	1.18678360013291	0	399201	253
780.865234375	0	taste	response	2	69	9	foodImage.94	FOODEEG_Images\0902.jpg	NY	Right	Yes	1.18678360013291	0	399804	235
781.90625	1	health	trialStart	2	70	10	foodImage.118	FOODEEG_Images\0926.jpg	YN	Right	No	1.47632139967754	0	400337	251
782.9453125	2	health	foodImageDisplay	2	70	10	foodImage.118	FOODEEG_Images\0926.jpg	YN	Right	No	1.47632139967754	0	400869	252
785.0078125	1.47632139967754	health	choicePhaseStart	2	70	10	foodImage.118	FOODEEG_Images\0926.jpg	YN	Right	No	1.47632139967754	0	401925	253
786.47265625	0	health	response	2	70	10	foodImage.118	FOODEEG_Images\0926.jpg	YN	Right	No	1.47632139967754	0	402675	235
787.51953125	1	taste	trialStart	2	71	11	foodImage.50	FOODEEG_Images\0529.jpg	YN	Left	Yes	0.958203100133687	0	403211	251
788.580078125	2	taste	foodImageDisplay	2	71	11	foodImage.50	FOODEEG_Images\0529.jpg	YN	Left	Yes	0.958203100133687	0	403754	252
790.642578125	0.958203100133687	taste	choicePhaseStart	2	71	11	foodImage.50	FOODEEG_Images\0529.jpg	YN	Left	Yes	0.958203100133687	0	404810	253
791.591796875	0	taste	response	2	71	11	foodImage.50	FOODEEG_Images\0529.jpg	YN	Left	Yes	0.958203100133687	0	405296	234
792.640625	1	health	trialStart	2	72	12	foodImage.117	FOODEEG_Images\0925.jpg	NY	Left	No	2.0103587997146	0	405833	251
793.681640625	2	health	foodImageDisplay	2	72	12	foodImage.117	FOODEEG_Images\0925.jpg	NY	Left	No	2.0103587997146	0	406366	252
795.744140625	2.0103587997146	health	choicePhaseStart	2	72	12	foodImage.117	FOODEEG_Images\0925.jpg	NY	Left	No	2.0103587997146	0	407422	253
797.744140625	0	health	response	2	72	12	foodImage.117	FOODEEG_Images\0925.jpg	NY	Left	No	2.0103587997146	0	408446	234
798.79296875	1	taste	trialStart	2	73	13	foodImage.98	FOODEEG_Images\0906.jpg	NY	Right	Yes	2.38163099996746	0	408983	251
799.830078125	2	taste	foodImageDisplay	2	73	13	foodImage.98	FOODEEG_Images\0906.jpg	NY	Right	Yes	2.38163099996746	0	409514	252
801.8984375	2.38163099996746	taste	choicePhaseStart	2	73	13	foodImage.98	FOODEEG_Images\0906.jpg	NY	Right	Yes	2.38163099996746	0	410573	253
804.271484375	0	taste	response	2	73	13	foodImage.98	FOODEEG_Images\0906.jpg	NY	Right	Yes	2.38163099996746	0	411788	235
805.3125	1	health	trialStart	2	74	14	foodImage.11	FOODEEG_Images\0180.jpg	YN	Left	Yes	1.22365050017834	0	412321	251
806.353515625	2	health	foodImageDisplay	2	74	14	foodImage.11	FOODEEG_Images\0180.jpg	YN	Left	Yes	1.22365050017834	0	412854	252
808.416015625	1.22365050017834	health	choicePhaseStart	2	74	14	foodImage.11	FOODEEG_Images\0180.jpg	YN	Left	Yes	1.22365050017834	0	413910	253
809.6328125	0	health	response	2	74	14	foodImage.11	FOODEEG_Images\0180.jpg	YN	Left	Yes	1.22365050017834	0	414533	234
810.673828125	1	health	trialStart	2	75	15	foodImage.20	FOODEEG_Images\0226.jpg	NY	Right	Yes	1.26826420007274	0	415066	251
811.7265625	2	health	foodImageDisplay	2	75	15	foodImage.20	FOODEEG_Images\0226.jpg	NY	Right	Yes	1.26826420007274	0	415605	252
813.7890625	1.26826420007274	health	choicePhaseStart	2	75	15	foodImage.20	FOODEEG_Images\0226.jpg	NY	Right	Yes	1.26826420007274	0	416661	253
815.048828125	0	health	response	2	75	15	foodImage.20	FOODEEG_Images\0226.jpg	NY	Right	Yes	1.26826420007274	0	417306	235
816.091796875	1	decision	trialStart	2	76	16	foodImage.99	FOODEEG_Images\0907.jpg	YN	Left	Yes	1.96895410027355	0	417840	251
817.12890625	2	decision	foodImageDisplay	2	76	16	foodImage.99	FOODEEG_Images\0907.jpg	YN	Left	Yes	1.96895410027355	0	418371	252
819.19140625	1.96895410027355	decision	choicePhaseStart	2	76	16	foodImage.99	FOODEEG_Images\0907.jpg	YN	Left	Yes	1.96895410027355	0	419427	253
821.15234375	0	decision	response	2	76	16	foodImage.99	FOODEEG_Images\0907.jpg	YN	Left	Yes	1.96895410027355	0	420431	234
822.193359375	1	decision	trialStart	2	77	17	foodImage.104	FOODEEG_Images\0912.jpg	YN	Left	Yes	2.16456549987197	0	420964	251
823.23046875	2	decision	foodImageDisplay	2	77	17	foodImage.104	FOODEEG_Images\0912.jpg	YN	Left	Yes	2.16456549987197	0	421495	252
825.291015625	2.16456549987197	decision	choicePhaseStart	2	77	17	foodImage.104	FOODEEG_Images\0912.jpg	YN	Left	Yes	2.16456549987197	0	422550	253
827.447265625	0	decision	response	2	77	17	foodImage.104	FOODEEG_Images\0912.jpg	YN	Left	Yes	2.16456549987197	0	423654	234
828.490234375	1	decision	trialStart	2	78	18	foodImage.79	FOODEEG_Images\0794.jpg	NY	Right	Yes	1.31575640011579	0	424188	251
829.533203125	2	decision	foodImageDisplay	2	78	18	foodImage.79	FOODEEG_Images\0794.jpg	NY	Right	Yes	1.31575640011579	0	424722	252
831.595703125	1.31575640011579	decision	choicePhaseStart	2	78	18	foodImage.79	FOODEEG_Images\0794.jpg	NY	Right	Yes	1.31575640011579	0	425778	253
832.90234375	0	decision	response	2	78	18	foodImage.79	FOODEEG_Images\0794.jpg	NY	Right	Yes	1.31575640011579	0	426447	235
833.951171875	1	taste	trialStart	2	79	19	foodImage.51	FOODEEG_Images\0536.jpg	YN	Left	Yes	0.92418809980154	0	426984	251
834.998046875	2	taste	foodImageDisplay	2	79	19	foodImage.51	FOODEEG_Images\0536.jpg	YN	Left	Yes	0.92418809980154	0	427520	252
837.060546875	0.92418809980154	taste	choicePhaseStart	2	79	19	foodImage.51	FOODEEG_Images\0536.jpg	YN	Left	Yes	0.92418809980154	0	428576	253
837.974609375	0	taste	response	2	79	19	foodImage.51	FOODEEG_Images\0536.jpg	YN	Left	Yes	0.92418809980154	0	429044	234
839.021484375	1	health	trialStart	2	80	20	foodImage.77	FOODEEG_Images\0771.jpg	NY	Right	Yes	1.15217959973961	0	429580	251
840.064453125	2	health	foodImageDisplay	2	80	20	foodImage.77	FOODEEG_Images\0771.jpg	NY	Right	Yes	1.15217959973961	0	430114	252
842.126953125	1.15217959973961	health	choicePhaseStart	2	80	20	foodImage.77	FOODEEG_Images\0771.jpg	NY	Right	Yes	1.15217959973961	0	431170	253
843.26953125	0	health	response	2	80	20	foodImage.77	FOODEEG_Images\0771.jpg	NY	Right	Yes	1.15217959973961	0	431755	235
844.314453125	1	health	trialStart	2	81	21	foodImage.35	FOODEEG_Images\0350.jpg	YN	Right	No	1.08702649967745	0	432290	251
845.35546875	2	health	foodImageDisplay	2	81	21	foodImage.35	FOODEEG_Images\0350.jpg	YN	Right	No	1.08702649967745	0	432823	252
847.416015625	1.08702649967745	health	choicePhaseStart	2	81	21	foodImage.35	FOODEEG_Images\0350.jpg	YN	Right	No	1.08702649967745	0	433878	253
848.494140625	0	health	response	2	81	21	foodImage.35	FOODEEG_Images\0350.jpg	YN	Right	No	1.08702649967745	0	434430	235
849.53515625	1	taste	trialStart	2	82	22	foodImage.118	FOODEEG_Images\0926.jpg	YN	Right	No	1.37352090002969	0	434963	251
850.572265625	2	taste	foodImageDisplay	2	82	22	foodImage.118	FOODEEG_Images\0926.jpg	YN	Right	No	1.37352090002969	0	435494	252
852.634765625	1.37352090002969	taste	choicePhaseStart	2	82	22	foodImage.118	FOODEEG_Images\0926.jpg	YN	Right	No	1.37352090002969	0	436550	253
853.998046875	0	taste	response	2	82	22	foodImage.118	FOODEEG_Images\0926.jpg	YN	Right	No	1.37352090002969	0	437248	235
855.041015625	1	decision	trialStart	2	83	23	foodImage.62	FOODEEG_Images\0644.jpg	NY	Right	Yes	1.06201690016314	0	437782	251
856.099609375	2	decision	foodImageDisplay	2	83	23	foodImage.62	FOODEEG_Images\0644.jpg	NY	Right	Yes	1.06201690016314	0	438324	252
858.162109375	1.06201690016314	decision	choicePhaseStart	2	83	23	foodImage.62	FOODEEG_Images\0644.jpg	NY	Right	Yes	1.06201690016314	0	439380	253
859.212890625	0	decision	response	2	83	23	foodImage.62	FOODEEG_Images\0644.jpg	NY	Right	Yes	1.06201690016314	0	439918	235
860.2578125	1	decision	trialStart	2	84	24	foodImage.80	FOODEEG_Images\0796.jpg	YN	Left	Yes	1.14741639979184	0	440453	251
861.31640625	2	decision	foodImageDisplay	2	84	24	foodImage.80	FOODEEG_Images\0796.jpg	YN	Left	Yes	1.14741639979184	0	440995	252
863.37890625	1.14741639979184	decision	choicePhaseStart	2	84	24	foodImage.80	FOODEEG_Images\0796.jpg	YN	Left	Yes	1.14741639979184	0	442051	253
864.517578125	0	decision	response	2	84	24	foodImage.80	FOODEEG_Images\0796.jpg	YN	Left	Yes	1.14741639979184	0	442634	234
865.5625	1	health	trialStart	2	85	25	foodImage.29	FOODEEG_Images\0278.jpg	NY	Right	Yes	0.853368899784982	0	443169	251
866.603515625	2	health	foodImageDisplay	2	85	25	foodImage.29	FOODEEG_Images\0278.jpg	NY	Right	Yes	0.853368899784982	0	443702	252
868.666015625	0.853368899784982	health	choicePhaseStart	2	85	25	foodImage.29	FOODEEG_Images\0278.jpg	NY	Right	Yes	0.853368899784982	0	444758	253
869.509765625	0	health	response	2	85	25	foodImage.29	FOODEEG_Images\0278.jpg	NY	Right	Yes	0.853368899784982	0	445190	235
870.5546875	1	taste	trialStart	2	86	26	foodImage.8	FOODEEG_Images\0136.jpg	NY	Right	Yes	0.844179800245911	0	445725	251
871.595703125	2	taste	foodImageDisplay	2	86	26	foodImage.8	FOODEEG_Images\0136.jpg	NY	Right	Yes	0.844179800245911	0	446258	252
873.658203125	0.844179800245911	taste	choicePhaseStart	2	86	26	foodImage.8	FOODEEG_Images\0136.jpg	NY	Right	Yes	0.844179800245911	0	447314	253
874.494140625	0	taste	response	2	86	26	foodImage.8	FOODEEG_Images\0136.jpg	NY	Right	Yes	0.844179800245911	0	447742	235
875.53515625	1	decision	trialStart	2	87	27	foodImage.90	FOODEEG_Images\0890.jpg	NY	Left	No	1.01143779978156	0	448275	251
876.595703125	2	decision	foodImageDisplay	2	87	27	foodImage.90	FOODEEG_Images\0890.jpg	NY	Left	No	1.01143779978156	0	448818	252
878.658203125	1.01143779978156	decision	choicePhaseStart	2	87	27	foodImage.90	FOODEEG_Images\0890.jpg	NY	Left	No	1.01143779978156	0	449874	253
879.662109375	0	decision	response	2	87	27	foodImage.90	FOODEEG_Images\0890.jpg	NY	Left	No	1.01143779978156	0	450388	234
880.705078125	1	taste	trialStart	2	88	28	foodImage.16	FOODEEG_Images\0196.jpg	NY	Right	Yes	0.784733000211418	0	450922	251
881.759765625	2	taste	foodImageDisplay	2	88	28	foodImage.16	FOODEEG_Images\0196.jpg	NY	Right	Yes	0.784733000211418	0	451462	252
883.822265625	0.784733000211418	taste	choicePhaseStart	2	88	28	foodImage.16	FOODEEG_Images\0196.jpg	NY	Right	Yes	0.784733000211418	0	452518	253
884.59765625	0	taste	response	2	88	28	foodImage.16	FOODEEG_Images\0196.jpg	NY	Right	Yes	0.784733000211418	0	452915	235
885.640625	1	decision	trialStart	2	89	29	foodImage.37	FOODEEG_Images\0359.jpg	NY	Right	Yes	0.726290999911726	0	453449	251
886.6875	2	decision	foodImageDisplay	2	89	29	foodImage.37	FOODEEG_Images\0359.jpg	NY	Right	Yes	0.726290999911726	0	453985	252
888.751953125	0.726290999911726	decision	choicePhaseStart	2	89	29	foodImage.37	FOODEEG_Images\0359.jpg	NY	Right	Yes	0.726290999911726	0	455042	253
889.46875	0	decision	response	2	89	29	foodImage.37	FOODEEG_Images\0359.jpg	NY	Right	Yes	0.726290999911726	0	455409	235
890.517578125	1	taste	trialStart	2	90	30	foodImage.92	FOODEEG_Images\0900.jpg	YN	Right	No	1.28222180018201	0	455946	251
891.556640625	2	taste	foodImageDisplay	2	90	30	foodImage.92	FOODEEG_Images\0900.jpg	YN	Right	No	1.28222180018201	0	456478	252
893.619140625	1.28222180018201	taste	choicePhaseStart	2	90	30	foodImage.92	FOODEEG_Images\0900.jpg	YN	Right	No	1.28222180018201	0	457534	253
894.892578125	0	taste	response	2	90	30	foodImage.92	FOODEEG_Images\0900.jpg	YN	Right	No	1.28222180018201	0	458186	235
895.93359375	1	health	trialStart	2	91	31	foodImage.119	FOODEEG_Images\0927.jpg	NY	Left	No	1.1804992002435	0	458719	251
896.970703125	2	health	foodImageDisplay	2	91	31	foodImage.119	FOODEEG_Images\0927.jpg	NY	Left	No	1.1804992002435	0	459250	252
899.033203125	1.1804992002435	health	choicePhaseStart	2	91	31	foodImage.119	FOODEEG_Images\0927.jpg	NY	Left	No	1.1804992002435	0	460306	253
900.205078125	0	health	response	2	91	31	foodImage.119	FOODEEG_Images\0927.jpg	NY	Left	No	1.1804992002435	0	460906	234
901.255859375	1	taste	trialStart	2	92	32	foodImage.14	FOODEEG_Images\0188.jpg	NY	Right	Yes	1.02044540038332	0	461444	251
902.314453125	2	taste	foodImageDisplay	2	92	32	foodImage.14	FOODEEG_Images\0188.jpg	NY	Right	Yes	1.02044540038332	0	461986	252
904.376953125	1.02044540038332	taste	choicePhaseStart	2	92	32	foodImage.14	FOODEEG_Images\0188.jpg	NY	Right	Yes	1.02044540038332	0	463042	253
905.388671875	0	taste	response	2	92	32	foodImage.14	FOODEEG_Images\0188.jpg	NY	Right	Yes	1.02044540038332	0	463560	235
906.431640625	1	health	trialStart	2	93	33	foodImage.85	FOODEEG_Images\0841.jpg	NY	Right	Yes	0.909415999893099	0	464094	251
907.48828125	2	health	foodImageDisplay	2	93	33	foodImage.85	FOODEEG_Images\0841.jpg	NY	Right	Yes	0.909415999893099	0	464635	252
909.55078125	0.909415999893099	health	choicePhaseStart	2	93	33	foodImage.85	FOODEEG_Images\0841.jpg	NY	Right	Yes	0.909415999893099	0	465691	253
910.453125	0	health	response	2	93	33	foodImage.85	FOODEEG_Images\0841.jpg	NY	Right	Yes	0.909415999893099	0	466153	235
911.501953125	1	taste	trialStart	2	94	34	foodImage.42	FOODEEG_Images\0438.jpg	YN	Left	Yes	1.33893160009757	0	466690	251
912.595703125	2	taste	foodImageDisplay	2	94	34	foodImage.42	FOODEEG_Images\0438.jpg	YN	Left	Yes	1.33893160009757	0	467250	252
914.658203125	1.33893160009757	taste	choicePhaseStart	2	94	34	foodImage.42	FOODEEG_Images\0438.jpg	YN	Left	Yes	1.33893160009757	0	468306	253
915.98828125	0	taste	response	2	94	34	foodImage.42	FOODEEG_Images\0438.jpg	YN	Left	Yes	1.33893160009757	0	468987	234
917.02734375	1	taste	trialStart	2	95	35	foodImage.38	FOODEEG_Images\0365.jpg	YN	Left	Yes	0.915165499784052	0	469519	251
918.06640625	2	taste	foodImageDisplay	2	95	35	foodImage.38	FOODEEG_Images\0365.jpg	YN	Left	Yes	0.915165499784052	0	470051	252
920.12890625	0.915165499784052	taste	choicePhaseStart	2	95	35	foodImage.38	FOODEEG_Images\0365.jpg	YN	Left	Yes	0.915165499784052	0	471107	253
921.03515625	0	taste	response	2	95	35	foodImage.38	FOODEEG_Images\0365.jpg	YN	Left	Yes	0.915165499784052	0	471571	234
922.076171875	1	decision	trialStart	2	96	36	foodImage.95	FOODEEG_Images\0903.jpg	NY	Left	No	1.56560420012102	0	472104	251
923.111328125	2	decision	foodImageDisplay	2	96	36	foodImage.95	FOODEEG_Images\0903.jpg	NY	Left	No	1.56560420012102	0	472634	252
925.173828125	1.56560420012102	decision	choicePhaseStart	2	96	36	foodImage.95	FOODEEG_Images\0903.jpg	NY	Left	No	1.56560420012102	0	473690	253
926.732421875	0	decision	response	2	96	36	foodImage.95	FOODEEG_Images\0903.jpg	NY	Left	No	1.56560420012102	0	474488	234
927.775390625	1	health	trialStart	2	97	37	foodImage.69	FOODEEG_Images\0693.jpg	NY	Right	Yes	2.6441231998615	0	475022	251
928.818359375	2	health	foodImageDisplay	2	97	37	foodImage.69	FOODEEG_Images\0693.jpg	NY	Right	Yes	2.6441231998615	0	475556	252
930.880859375	2.6441231998615	health	choicePhaseStart	2	97	37	foodImage.69	FOODEEG_Images\0693.jpg	NY	Right	Yes	2.6441231998615	0	476612	253
933.515625	0	health	response	2	97	37	foodImage.69	FOODEEG_Images\0693.jpg	NY	Right	Yes	2.6441231998615	0	477961	235
934.55859375	1	health	trialStart	2	98	38	foodImage.55	FOODEEG_Images\0567.jpg	NY	Right	Yes	1.08630889980122	0	478495	251
935.615234375	2	health	foodImageDisplay	2	98	38	foodImage.55	FOODEEG_Images\0567.jpg	NY	Right	Yes	1.08630889980122	0	479036	252
937.677734375	1.08630889980122	health	choicePhaseStart	2	98	38	foodImage.55	FOODEEG_Images\0567.jpg	NY	Right	Yes	1.08630889980122	0	480092	253
938.75390625	0	health	response	2	98	38	foodImage.55	FOODEEG_Images\0567.jpg	NY	Right	Yes	1.08630889980122	0	480643	235
939.796875	1	taste	trialStart	2	99	39	foodImage.114	FOODEEG_Images\0922.jpg	NY	Right	Yes	0.880756499711424	0	481177	251
940.837890625	2	taste	foodImageDisplay	2	99	39	foodImage.114	FOODEEG_Images\0922.jpg	NY	Right	Yes	0.880756499711424	0	481710	252
942.900390625	0.880756499711424	taste	choicePhaseStart	2	99	39	foodImage.114	FOODEEG_Images\0922.jpg	NY	Right	Yes	0.880756499711424	0	482766	253
943.771484375	0	taste	response	2	99	39	foodImage.114	FOODEEG_Images\0922.jpg	NY	Right	Yes	0.880756499711424	0	483212	235
944.81640625	1	health	trialStart	2	100	40	foodImage.109	FOODEEG_Images\0917.jpg	YN	Right	No	1.12520569982007	0	483747	251
945.85546875	2	health	foodImageDisplay	2	100	40	foodImage.109	FOODEEG_Images\0917.jpg	YN	Right	No	1.12520569982007	0	484279	252
947.91796875	1.12520569982007	health	choicePhaseStart	2	100	40	foodImage.109	FOODEEG_Images\0917.jpg	YN	Right	No	1.12520569982007	0	485335	253
949.03515625	0	health	response	2	100	40	foodImage.109	FOODEEG_Images\0917.jpg	YN	Right	No	1.12520569982007	0	485907	235
950.078125	1	taste	trialStart	2	101	41	foodImage.6	FOODEEG_Images\0113.jpg	YN	Left	Yes	0.817251299973577	0	486441	251
951.1328125	2	taste	foodImageDisplay	2	101	41	foodImage.6	FOODEEG_Images\0113.jpg	YN	Left	Yes	0.817251299973577	0	486981	252
953.1953125	0.817251299973577	taste	choicePhaseStart	2	101	41	foodImage.6	FOODEEG_Images\0113.jpg	YN	Left	Yes	0.817251299973577	0	488037	253
954.001953125	0	taste	response	2	101	41	foodImage.6	FOODEEG_Images\0113.jpg	YN	Left	Yes	0.817251299973577	0	488450	234
955.044921875	1	taste	trialStart	2	102	42	foodImage.66	FOODEEG_Images\0676.jpg	YN	Left	Yes	1.09489749977365	0	488984	251
956.0859375	2	taste	foodImageDisplay	2	102	42	foodImage.66	FOODEEG_Images\0676.jpg	YN	Left	Yes	1.09489749977365	0	489517	252
958.1484375	1.09489749977365	taste	choicePhaseStart	2	102	42	foodImage.66	FOODEEG_Images\0676.jpg	YN	Left	Yes	1.09489749977365	0	490573	253
959.234375	0	taste	response	2	102	42	foodImage.66	FOODEEG_Images\0676.jpg	YN	Left	Yes	1.09489749977365	0	491129	234
960.275390625	1	taste	trialStart	2	103	43	foodImage.44	FOODEEG_Images\0459.jpg	YN	Left	Yes	0.756600799970329	0	491662	251
961.3203125	2	taste	foodImageDisplay	2	103	43	foodImage.44	FOODEEG_Images\0459.jpg	YN	Left	Yes	0.756600799970329	0	492197	252
963.3828125	0.756600799970329	taste	choicePhaseStart	2	103	43	foodImage.44	FOODEEG_Images\0459.jpg	YN	Left	Yes	0.756600799970329	0	493253	253
964.12890625	0	taste	response	2	103	43	foodImage.44	FOODEEG_Images\0459.jpg	YN	Left	Yes	0.756600799970329	0	493635	234
965.173828125	1	decision	trialStart	2	104	44	foodImage.97	FOODEEG_Images\0905.jpg	NY	Left	No	1.02589849987999	0	494170	251
966.2109375	2	decision	foodImageDisplay	2	104	44	foodImage.97	FOODEEG_Images\0905.jpg	NY	Left	No	1.02589849987999	0	494701	252
968.275390625	1.02589849987999	decision	choicePhaseStart	2	104	44	foodImage.97	FOODEEG_Images\0905.jpg	NY	Left	No	1.02589849987999	0	495758	253
969.291015625	0	decision	response	2	104	44	foodImage.97	FOODEEG_Images\0905.jpg	NY	Left	No	1.02589849987999	0	496278	234
970.33203125	1	taste	trialStart	2	105	45	foodImage.107	FOODEEG_Images\0915.jpg	YN	Right	No	1.0111801000312	0	496811	251
971.369140625	2	taste	foodImageDisplay	2	105	45	foodImage.107	FOODEEG_Images\0915.jpg	YN	Right	No	1.0111801000312	0	497342	252
973.431640625	1.0111801000312	taste	choicePhaseStart	2	105	45	foodImage.107	FOODEEG_Images\0915.jpg	YN	Right	No	1.0111801000312	0	498398	253
974.43359375	0	taste	response	2	105	45	foodImage.107	FOODEEG_Images\0915.jpg	YN	Right	No	1.0111801000312	0	498911	235
975.47265625	1	taste	trialStart	2	106	46	foodImage.96	FOODEEG_Images\0904.jpg	YN	Left	Yes	1.33809240022674	0	499443	251
976.513671875	2	taste	foodImageDisplay	2	106	46	foodImage.96	FOODEEG_Images\0904.jpg	YN	Left	Yes	1.33809240022674	0	499976	252
978.576171875	1.33809240022674	taste	choicePhaseStart	2	106	46	foodImage.96	FOODEEG_Images\0904.jpg	YN	Left	Yes	1.33809240022674	0	501032	253
979.90625	0	taste	response	2	106	46	foodImage.96	FOODEEG_Images\0904.jpg	YN	Left	Yes	1.33809240022674	0	501713	234
980.958984375	1	health	trialStart	2	107	47	foodImage.33	FOODEEG_Images\0329.jpg	NY	Left	No	0.9181989999488	0	502252	251
982.001953125	2	health	foodImageDisplay	2	107	47	foodImage.33	FOODEEG_Images\0329.jpg	NY	Left	No	0.9181989999488	0	502786	252
984.068359375	0.9181989999488	health	choicePhaseStart	2	107	47	foodImage.33	FOODEEG_Images\0329.jpg	NY	Left	No	0.9181989999488	0	503844	253
984.9765625	0	health	response	2	107	47	foodImage.33	FOODEEG_Images\0329.jpg	NY	Left	No	0.9181989999488	0	504309	234
986.01953125	1	health	trialStart	2	108	48	foodImage.44	FOODEEG_Images\0459.jpg	YN	Left	Yes	1.10396899981424	0	504843	251
987.06640625	2	health	foodImageDisplay	2	108	48	foodImage.44	FOODEEG_Images\0459.jpg	YN	Left	Yes	1.10396899981424	0	505379	252
989.12890625	1.10396899981424	health	choicePhaseStart	2	108	48	foodImage.44	FOODEEG_Images\0459.jpg	YN	Left	Yes	1.10396899981424	0	506435	253
990.224609375	0	health	response	2	108	48	foodImage.44	FOODEEG_Images\0459.jpg	YN	Left	Yes	1.10396899981424	0	506996	234
991.267578125	1	decision	trialStart	2	109	49	foodImage.61	FOODEEG_Images\0640.jpg	YN	Left	Yes	0.83719260012731	0	507530	251
992.30859375	2	decision	foodImageDisplay	2	109	49	foodImage.61	FOODEEG_Images\0640.jpg	YN	Left	Yes	0.83719260012731	0	508063	252
994.373046875	0.83719260012731	decision	choicePhaseStart	2	109	49	foodImage.61	FOODEEG_Images\0640.jpg	YN	Left	Yes	0.83719260012731	0	509120	253
995.201171875	0	decision	response	2	109	49	foodImage.61	FOODEEG_Images\0640.jpg	YN	Left	Yes	0.83719260012731	0	509544	234
996.244140625	1	taste	trialStart	2	110	50	foodImage.17	FOODEEG_Images\0199.jpg	YN	Left	Yes	0.756419799756259	0	510078	251
997.287109375	2	taste	foodImageDisplay	2	110	50	foodImage.17	FOODEEG_Images\0199.jpg	YN	Left	Yes	0.756419799756259	0	510612	252
999.349609375	0.756419799756259	taste	choicePhaseStart	2	110	50	foodImage.17	FOODEEG_Images\0199.jpg	YN	Left	Yes	0.756419799756259	0	511668	253
1000.095703125	0	taste	response	2	110	50	foodImage.17	FOODEEG_Images\0199.jpg	YN	Left	Yes	0.756419799756259	0	512050	234
1001.140625	1	taste	trialStart	2	111	51	foodImage.60	FOODEEG_Images\0614.jpg	YN	Left	Yes	1.55484709981829	0	512585	251
1002.19921875	2	taste	foodImageDisplay	2	111	51	foodImage.60	FOODEEG_Images\0614.jpg	YN	Left	Yes	1.55484709981829	0	513127	252
1004.26171875	1.55484709981829	taste	choicePhaseStart	2	111	51	foodImage.60	FOODEEG_Images\0614.jpg	YN	Left	Yes	1.55484709981829	0	514183	253
1005.80859375	0	taste	response	2	111	51	foodImage.60	FOODEEG_Images\0614.jpg	YN	Left	Yes	1.55484709981829	0	514975	234
1006.84765625	1	decision	trialStart	2	112	52	foodImage.6	FOODEEG_Images\0113.jpg	NY	Right	Yes	0.779595400206745	0	515507	251
1007.888671875	2	decision	foodImageDisplay	2	112	52	foodImage.6	FOODEEG_Images\0113.jpg	NY	Right	Yes	0.779595400206745	0	516040	252
1009.94921875	0.779595400206745	decision	choicePhaseStart	2	112	52	foodImage.6	FOODEEG_Images\0113.jpg	NY	Right	Yes	0.779595400206745	0	517095	253
1010.720703125	0	decision	response	2	112	52	foodImage.6	FOODEEG_Images\0113.jpg	NY	Right	Yes	0.779595400206745	0	517490	235
1011.763671875	1	decision	trialStart	2	113	53	foodImage.51	FOODEEG_Images\0536.jpg	YN	Left	Yes	1.4972618999891	0	518024	251
1012.810546875	2	decision	foodImageDisplay	2	113	53	foodImage.51	FOODEEG_Images\0536.jpg	YN	Left	Yes	1.4972618999891	0	518560	252
1014.87109375	1.4972618999891	decision	choicePhaseStart	2	113	53	foodImage.51	FOODEEG_Images\0536.jpg	YN	Left	Yes	1.4972618999891	0	519615	253
1016.359375	0	decision	response	2	113	53	foodImage.51	FOODEEG_Images\0536.jpg	YN	Left	Yes	1.4972618999891	0	520377	234
1017.40625	1	decision	trialStart	2	114	54	foodImage.55	FOODEEG_Images\0567.jpg	YN	Left	Yes	0.763647399842739	0	520913	251
1018.462890625	2	decision	foodImageDisplay	2	114	54	foodImage.55	FOODEEG_Images\0567.jpg	YN	Left	Yes	0.763647399842739	0	521454	252
1020.525390625	0.763647399842739	decision	choicePhaseStart	2	114	54	foodImage.55	FOODEEG_Images\0567.jpg	YN	Left	Yes	0.763647399842739	0	522510	253
1021.279296875	0	decision	response	2	114	54	foodImage.55	FOODEEG_Images\0567.jpg	YN	Left	Yes	0.763647399842739	0	522896	234
1022.32421875	1	health	trialStart	2	115	55	foodImage.112	FOODEEG_Images\0920.jpg	NY	Left	No	1.54950179997832	0	523431	251
1023.36328125	2	health	foodImageDisplay	2	115	55	foodImage.112	FOODEEG_Images\0920.jpg	NY	Left	No	1.54950179997832	0	523963	252
1025.42578125	1.54950179997832	health	choicePhaseStart	2	115	55	foodImage.112	FOODEEG_Images\0920.jpg	NY	Left	No	1.54950179997832	0	525019	253
1026.966796875	0	health	response	2	115	55	foodImage.112	FOODEEG_Images\0920.jpg	NY	Left	No	1.54950179997832	0	525808	234
1028.0078125	1	taste	trialStart	2	116	56	foodImage.110	FOODEEG_Images\0918.jpg	NY	Left	No	1.02948880009353	0	526341	251
1029.044921875	2	taste	foodImageDisplay	2	116	56	foodImage.110	FOODEEG_Images\0918.jpg	NY	Left	No	1.02948880009353	0	526872	252
1031.107421875	1.02948880009353	taste	choicePhaseStart	2	116	56	foodImage.110	FOODEEG_Images\0918.jpg	NY	Left	No	1.02948880009353	0	527928	253
1032.126953125	0	taste	response	2	116	56	foodImage.110	FOODEEG_Images\0918.jpg	NY	Left	No	1.02948880009353	0	528450	234
1033.171875	1	health	trialStart	2	117	57	foodImage.80	FOODEEG_Images\0796.jpg	YN	Left	Yes	0.888400100171566	0	528985	251
1034.2265625	2	health	foodImageDisplay	2	117	57	foodImage.80	FOODEEG_Images\0796.jpg	YN	Left	Yes	0.888400100171566	0	529525	252
1036.287109375	0.888400100171566	health	choicePhaseStart	2	117	57	foodImage.80	FOODEEG_Images\0796.jpg	YN	Left	Yes	0.888400100171566	0	530580	253
1037.16796875	0	health	response	2	117	57	foodImage.80	FOODEEG_Images\0796.jpg	YN	Left	Yes	0.888400100171566	0	531031	234
1038.2109375	1	taste	trialStart	2	118	58	foodImage.7	FOODEEG_Images\0116.jpg	NY	Right	Yes	1.326191900298	0	531565	251
1039.251953125	2	taste	foodImageDisplay	2	118	58	foodImage.7	FOODEEG_Images\0116.jpg	NY	Right	Yes	1.326191900298	0	532098	252
1041.314453125	1.326191900298	taste	choicePhaseStart	2	118	58	foodImage.7	FOODEEG_Images\0116.jpg	NY	Right	Yes	1.326191900298	0	533154	253
1042.630859375	0	taste	response	2	118	58	foodImage.7	FOODEEG_Images\0116.jpg	NY	Right	Yes	1.326191900298	0	533828	235
1043.673828125	1	taste	trialStart	2	119	59	foodImage.100	FOODEEG_Images\0908.jpg	YN	Right	No	1.1031410000287	0	534362	251
1044.71484375	2	taste	foodImageDisplay	2	119	59	foodImage.100	FOODEEG_Images\0908.jpg	YN	Right	No	1.1031410000287	0	534895	252
1046.775390625	1.1031410000287	taste	choicePhaseStart	2	119	59	foodImage.100	FOODEEG_Images\0908.jpg	YN	Right	No	1.1031410000287	0	535950	253
1047.87109375	0	taste	response	2	119	59	foodImage.100	FOODEEG_Images\0908.jpg	YN	Right	No	1.1031410000287	0	536511	235
1048.9140625	1	health	trialStart	2	120	60	foodImage.88	FOODEEG_Images\0878.jpg	YN	Right	No	1.08442980004475	0	537045	251
1049.97265625	2	health	foodImageDisplay	2	120	60	foodImage.88	FOODEEG_Images\0878.jpg	YN	Right	No	1.08442980004475	0	537587	252
1052.03515625	1.08442980004475	health	choicePhaseStart	2	120	60	foodImage.88	FOODEEG_Images\0878.jpg	YN	Right	No	1.08442980004475	0	538643	253
1053.109375	0	health	response	2	120	60	foodImage.88	FOODEEG_Images\0878.jpg	YN	Right	No	1.08442980004475	0	539193	235
1055.150390625	17.951171875	n/a	blockEnd	n/a	n/a	n/a	n/a	n/a	n/a	n/a	n/a	n/a	n/a	540238	254
1073.1015625	2	n/a	blockStart	3	n/a	n/a	n/a	n/a	n/a	n/a	n/a	n/a	n/a	549429	250
1075.134765625	1	health	trialStart	3	121	1	foodImage.104	FOODEEG_Images\0912.jpg	YN	Right	No	1.69850619975477	0	550470	251
1076.173828125	2	health	foodImageDisplay	3	121	1	foodImage.104	FOODEEG_Images\0912.jpg	YN	Right	No	1.69850619975477	0	551002	252
1078.236328125	1.69850619975477	health	choicePhaseStart	3	121	1	foodImage.104	FOODEEG_Images\0912.jpg	YN	Right	No	1.69850619975477	0	552058	253
1079.92578125	0	health	response	3	121	1	foodImage.104	FOODEEG_Images\0912.jpg	YN	Right	No	1.69850619975477	0	552923	235
1080.96875	1	decision	trialStart	3	122	2	foodImage.47	FOODEEG_Images\0488.jpg	NY	Right	Yes	0.852663499768823	0	553457	251
1082.01171875	2	decision	foodImageDisplay	3	122	2	foodImage.47	FOODEEG_Images\0488.jpg	NY	Right	Yes	0.852663499768823	0	553991	252
1084.07421875	0.852663499768823	decision	choicePhaseStart	3	122	2	foodImage.47	FOODEEG_Images\0488.jpg	NY	Right	Yes	0.852663499768823	0	555047	253
1084.91796875	0	decision	response	3	122	2	foodImage.47	FOODEEG_Images\0488.jpg	NY	Right	Yes	0.852663499768823	0	555479	235
1085.9609375	1	health	trialStart	3	123	3	foodImage.31	FOODEEG_Images\0294.jpg	NY	Left	No	0.850208700168878	0	556013	251
1087.005859375	2	health	foodImageDisplay	3	123	3	foodImage.31	FOODEEG_Images\0294.jpg	NY	Left	No	0.850208700168878	0	556548	252
1089.068359375	0.850208700168878	health	choicePhaseStart	3	123	3	foodImage.31	FOODEEG_Images\0294.jpg	NY	Left	No	0.850208700168878	0	557604	253
1089.908203125	0	health	response	3	123	3	foodImage.31	FOODEEG_Images\0294.jpg	NY	Left	No	0.850208700168878	0	558034	234
1090.953125	1	taste	trialStart	3	124	4	foodImage.111	FOODEEG_Images\0919.jpg	NY	Left	No	0.941132899839431	0	558569	251
1091.994140625	2	taste	foodImageDisplay	3	124	4	foodImage.111	FOODEEG_Images\0919.jpg	NY	Left	No	0.941132899839431	0	559102	252
1094.056640625	0.941132899839431	taste	choicePhaseStart	3	124	4	foodImage.111	FOODEEG_Images\0919.jpg	NY	Left	No	0.941132899839431	0	560158	253
1094.98828125	0	taste	response	3	124	4	foodImage.111	FOODEEG_Images\0919.jpg	NY	Left	No	0.941132899839431	0	560635	234
1096.033203125	1	taste	trialStart	3	125	5	foodImage.36	FOODEEG_Images\0352.jpg	YN	Left	Yes	1.32552840001881	0	561170	251
1097.08984375	2	taste	foodImageDisplay	3	125	5	foodImage.36	FOODEEG_Images\0352.jpg	YN	Left	Yes	1.32552840001881	0	561711	252
1099.15234375	1.32552840001881	taste	choicePhaseStart	3	125	5	foodImage.36	FOODEEG_Images\0352.jpg	YN	Left	Yes	1.32552840001881	0	562767	253
1100.46875	0	taste	response	3	125	5	foodImage.36	FOODEEG_Images\0352.jpg	YN	Left	Yes	1.32552840001881	0	563441	234
1101.5078125	1	taste	trialStart	3	126	6	foodImage.83	FOODEEG_Images\0827.jpg	NY	Right	Yes	0.923397399950773	0	563973	251
1102.5625	2	taste	foodImageDisplay	3	126	6	foodImage.83	FOODEEG_Images\0827.jpg	NY	Right	Yes	0.923397399950773	0	564513	252
1104.623046875	0.923397399950773	taste	choicePhaseStart	3	126	6	foodImage.83	FOODEEG_Images\0827.jpg	NY	Right	Yes	0.923397399950773	0	565568	253
1105.541015625	0	taste	response	3	126	6	foodImage.83	FOODEEG_Images\0827.jpg	NY	Right	Yes	0.923397399950773	0	566038	235
1106.580078125	1	health	trialStart	3	127	7	foodImage.92	FOODEEG_Images\0900.jpg	NY	Left	No	1.15752689959481	0	566570	251
1107.6171875	2	health	foodImageDisplay	3	127	7	foodImage.92	FOODEEG_Images\0900.jpg	NY	Left	No	1.15752689959481	0	567101	252
1109.6796875	1.15752689959481	health	choicePhaseStart	3	127	7	foodImage.92	FOODEEG_Images\0900.jpg	NY	Left	No	1.15752689959481	0	568157	253
1110.828125	0	health	response	3	127	7	foodImage.92	FOODEEG_Images\0900.jpg	NY	Left	No	1.15752689959481	0	568745	234
1111.873046875	1	health	trialStart	3	128	8	foodImage.53	FOODEEG_Images\0547.jpg	YN	Right	No	1.48534870008007	0	569280	251
1112.927734375	2	health	foodImageDisplay	3	128	8	foodImage.53	FOODEEG_Images\0547.jpg	YN	Right	No	1.48534870008007	0	569820	252
1114.990234375	1.48534870008007	health	choicePhaseStart	3	128	8	foodImage.53	FOODEEG_Images\0547.jpg	YN	Right	No	1.48534870008007	0	570876	253
1116.46875	0	health	response	3	128	8	foodImage.53	FOODEEG_Images\0547.jpg	YN	Right	No	1.48534870008007	0	571633	235
1117.51171875	1	health	trialStart	3	129	9	foodImage.36	FOODEEG_Images\0352.jpg	YN	Right	No	1.08759010024369	0	572167	251
1118.56640625	2	health	foodImageDisplay	3	129	9	foodImage.36	FOODEEG_Images\0352.jpg	YN	Right	No	1.08759010024369	0	572707	252
1120.62890625	1.08759010024369	health	choicePhaseStart	3	129	9	foodImage.36	FOODEEG_Images\0352.jpg	YN	Right	No	1.08759010024369	0	573763	253
1121.70703125	0	health	response	3	129	9	foodImage.36	FOODEEG_Images\0352.jpg	YN	Right	No	1.08759010024369	0	574315	235
1122.748046875	1	decision	trialStart	3	130	10	foodImage.48	FOODEEG_Images\0494.jpg	NY	Right	Yes	1.72656909981743	0	574848	251
1123.7890625	2	decision	foodImageDisplay	3	130	10	foodImage.48	FOODEEG_Images\0494.jpg	NY	Right	Yes	1.72656909981743	0	575381	252
1125.8515625	1.72656909981743	decision	choicePhaseStart	3	130	10	foodImage.48	FOODEEG_Images\0494.jpg	NY	Right	Yes	1.72656909981743	0	576437	253
1127.572265625	0	decision	response	3	130	10	foodImage.48	FOODEEG_Images\0494.jpg	NY	Right	Yes	1.72656909981743	0	577318	235
1128.61328125	1	decision	trialStart	3	131	11	foodImage.93	FOODEEG_Images\0901.jpg	NY	Left	No	1.4012610996142	0	577851	251
1129.65234375	2	decision	foodImageDisplay	3	131	11	foodImage.93	FOODEEG_Images\0901.jpg	NY	Left	No	1.4012610996142	0	578383	252
1131.71484375	1.4012610996142	decision	choicePhaseStart	3	131	11	foodImage.93	FOODEEG_Images\0901.jpg	NY	Left	No	1.4012610996142	0	579439	253
1133.107421875	0	decision	response	3	131	11	foodImage.93	FOODEEG_Images\0901.jpg	NY	Left	No	1.4012610996142	0	580152	234
1134.1484375	1	decision	trialStart	3	132	12	foodImage.118	FOODEEG_Images\0926.jpg	NY	Left	No	1.41906500002369	0	580685	251
1135.1875	2	decision	foodImageDisplay	3	132	12	foodImage.118	FOODEEG_Images\0926.jpg	NY	Left	No	1.41906500002369	0	581217	252
1137.248046875	1.41906500002369	decision	choicePhaseStart	3	132	12	foodImage.118	FOODEEG_Images\0926.jpg	NY	Left	No	1.41906500002369	0	582272	253
1138.66015625	0	decision	response	3	132	12	foodImage.118	FOODEEG_Images\0926.jpg	NY	Left	No	1.41906500002369	0	582995	234
1139.708984375	1	decision	trialStart	3	133	13	foodImage.66	FOODEEG_Images\0676.jpg	YN	Left	Yes	0.849612500052899	0	583532	251
1140.755859375	2	decision	foodImageDisplay	3	133	13	foodImage.66	FOODEEG_Images\0676.jpg	YN	Left	Yes	0.849612500052899	0	584068	252
1142.818359375	0.849612500052899	decision	choicePhaseStart	3	133	13	foodImage.66	FOODEEG_Images\0676.jpg	YN	Left	Yes	0.849612500052899	0	585124	253
1143.658203125	0	decision	response	3	133	13	foodImage.66	FOODEEG_Images\0676.jpg	YN	Left	Yes	0.849612500052899	0	585554	234
1144.703125	1	taste	trialStart	3	134	14	foodImage.99	FOODEEG_Images\0907.jpg	NY	Right	Yes	1.47339770011604	0	586089	251
1145.740234375	2	taste	foodImageDisplay	3	134	14	foodImage.99	FOODEEG_Images\0907.jpg	NY	Right	Yes	1.47339770011604	0	586620	252
1147.802734375	1.47339770011604	taste	choicePhaseStart	3	134	14	foodImage.99	FOODEEG_Images\0907.jpg	NY	Right	Yes	1.47339770011604	0	587676	253
1149.265625	0	taste	response	3	134	14	foodImage.99	FOODEEG_Images\0907.jpg	NY	Right	Yes	1.47339770011604	0	588425	235
1150.310546875	1	health	trialStart	3	135	15	foodImage.13	FOODEEG_Images\0183.jpg	YN	Left	Yes	1.37096010008827	0	588960	251
1151.3515625	2	health	foodImageDisplay	3	135	15	foodImage.13	FOODEEG_Images\0183.jpg	YN	Left	Yes	1.37096010008827	0	589493	252
1153.416015625	1.37096010008827	health	choicePhaseStart	3	135	15	foodImage.13	FOODEEG_Images\0183.jpg	YN	Left	Yes	1.37096010008827	0	590550	253
1154.779296875	0	health	response	3	135	15	foodImage.13	FOODEEG_Images\0183.jpg	YN	Left	Yes	1.37096010008827	0	591248	234
1155.822265625	1	health	trialStart	3	136	16	foodImage.47	FOODEEG_Images\0488.jpg	NY	Left	No	0.952460400294513	0	591782	251
1156.861328125	2	health	foodImageDisplay	3	136	16	foodImage.47	FOODEEG_Images\0488.jpg	NY	Left	No	0.952460400294513	0	592314	252
1158.923828125	0.952460400294513	health	choicePhaseStart	3	136	16	foodImage.47	FOODEEG_Images\0488.jpg	NY	Left	No	0.952460400294513	0	593370	253
1159.8671875	0	health	response	3	136	16	foodImage.47	FOODEEG_Images\0488.jpg	NY	Left	No	0.952460400294513	0	593853	234
1160.90625	1	taste	trialStart	3	137	17	foodImage.102	FOODEEG_Images\0910.jpg	NY	Right	Yes	1.5497405002825	0	594385	251
1161.943359375	2	taste	foodImageDisplay	3	137	17	foodImage.102	FOODEEG_Images\0910.jpg	NY	Right	Yes	1.5497405002825	0	594916	252
1164.005859375	1.5497405002825	taste	choicePhaseStart	3	137	17	foodImage.102	FOODEEG_Images\0910.jpg	NY	Right	Yes	1.5497405002825	0	595972	253
1165.546875	0	taste	response	3	137	17	foodImage.102	FOODEEG_Images\0910.jpg	NY	Right	Yes	1.5497405002825	0	596761	235
1166.58984375	1	health	trialStart	3	138	18	foodImage.90	FOODEEG_Images\0890.jpg	YN	Right	No	1.38766940031201	0	597295	251
1167.646484375	2	health	foodImageDisplay	3	138	18	foodImage.90	FOODEEG_Images\0890.jpg	YN	Right	No	1.38766940031201	0	597836	252
1169.708984375	1.38766940031201	health	choicePhaseStart	3	138	18	foodImage.90	FOODEEG_Images\0890.jpg	YN	Right	No	1.38766940031201	0	598892	253
1171.08984375	0	health	response	3	138	18	foodImage.90	FOODEEG_Images\0890.jpg	YN	Right	No	1.38766940031201	0	599599	235
1172.13671875	1	decision	trialStart	3	139	19	foodImage.101	FOODEEG_Images\0909.jpg	YN	Right	No	1.18225349998102	0	600135	251
1173.173828125	2	decision	foodImageDisplay	3	139	19	foodImage.101	FOODEEG_Images\0909.jpg	YN	Right	No	1.18225349998102	0	600666	252
1175.236328125	1.18225349998102	decision	choicePhaseStart	3	139	19	foodImage.101	FOODEEG_Images\0909.jpg	YN	Right	No	1.18225349998102	0	601722	253
1176.41015625	0	decision	response	3	139	19	foodImage.101	FOODEEG_Images\0909.jpg	YN	Right	No	1.18225349998102	0	602323	235
1177.453125	1	health	trialStart	3	140	20	foodImage.81	FOODEEG_Images\0797.jpg	NY	Right	Yes	1.33927130000666	0	602857	251
1178.51171875	2	health	foodImageDisplay	3	140	20	foodImage.81	FOODEEG_Images\0797.jpg	NY	Right	Yes	1.33927130000666	0	603399	252
1180.57421875	1.33927130000666	health	choicePhaseStart	3	140	20	foodImage.81	FOODEEG_Images\0797.jpg	NY	Right	Yes	1.33927130000666	0	604455	253
1181.904296875	0	health	response	3	140	20	foodImage.81	FOODEEG_Images\0797.jpg	NY	Right	Yes	1.33927130000666	0	605136	235
1182.947265625	1	decision	trialStart	3	141	21	foodImage.30	FOODEEG_Images\0282.jpg	NY	Right	Yes	1.62497340003029	0	605670	251
1183.986328125	2	decision	foodImageDisplay	3	141	21	foodImage.30	FOODEEG_Images\0282.jpg	NY	Right	Yes	1.62497340003029	0	606202	252
1186.048828125	1.62497340003029	decision	choicePhaseStart	3	141	21	foodImage.30	FOODEEG_Images\0282.jpg	NY	Right	Yes	1.62497340003029	0	607258	253
1187.666015625	0	decision	response	3	141	21	foodImage.30	FOODEEG_Images\0282.jpg	NY	Right	Yes	1.62497340003029	0	608086	235
1188.708984375	1	taste	trialStart	3	142	22	foodImage.72	FOODEEG_Images\0714.jpg	YN	Left	Yes	1.65334790013731	0	608620	251
1189.751953125	2	taste	foodImageDisplay	3	142	22	foodImage.72	FOODEEG_Images\0714.jpg	YN	Left	Yes	1.65334790013731	0	609154	252
1191.8203125	1.65334790013731	taste	choicePhaseStart	3	142	22	foodImage.72	FOODEEG_Images\0714.jpg	YN	Left	Yes	1.65334790013731	0	610213	253
1193.46484375	0	taste	response	3	142	22	foodImage.72	FOODEEG_Images\0714.jpg	YN	Left	Yes	1.65334790013731	0	611055	234
1194.51171875	1	decision	trialStart	3	143	23	foodImage.5	FOODEEG_Images\0107.jpg	NY	Right	Yes	0.857123699970543	0	611591	251
1195.5703125	2	decision	foodImageDisplay	3	143	23	foodImage.5	FOODEEG_Images\0107.jpg	NY	Right	Yes	0.857123699970543	0	612133	252
1197.6328125	0.857123699970543	decision	choicePhaseStart	3	143	23	foodImage.5	FOODEEG_Images\0107.jpg	NY	Right	Yes	0.857123699970543	0	613189	253
1198.48046875	0	decision	response	3	143	23	foodImage.5	FOODEEG_Images\0107.jpg	NY	Right	Yes	0.857123699970543	0	613623	235
1199.525390625	1	decision	trialStart	3	144	24	foodImage.85	FOODEEG_Images\0841.jpg	YN	Left	Yes	0.875245399773121	0	614158	251
1200.580078125	2	decision	foodImageDisplay	3	144	24	foodImage.85	FOODEEG_Images\0841.jpg	YN	Left	Yes	0.875245399773121	0	614698	252
1202.646484375	0.875245399773121	decision	choicePhaseStart	3	144	24	foodImage.85	FOODEEG_Images\0841.jpg	YN	Left	Yes	0.875245399773121	0	615756	253
1203.51171875	0	decision	response	3	144	24	foodImage.85	FOODEEG_Images\0841.jpg	YN	Left	Yes	0.875245399773121	0	616199	234
1204.556640625	1	decision	trialStart	3	145	25	foodImage.74	FOODEEG_Images\0752.jpg	YN	Left	Yes	1.02379500027746	0	616734	251
1205.603515625	2	decision	foodImageDisplay	3	145	25	foodImage.74	FOODEEG_Images\0752.jpg	YN	Left	Yes	1.02379500027746	0	617270	252
1207.666015625	1.02379500027746	decision	choicePhaseStart	3	145	25	foodImage.74	FOODEEG_Images\0752.jpg	YN	Left	Yes	1.02379500027746	0	618326	253
1208.6796875	0	decision	response	3	145	25	foodImage.74	FOODEEG_Images\0752.jpg	YN	Left	Yes	1.02379500027746	0	618845	234
1209.724609375	1	health	trialStart	3	146	26	foodImage.8	FOODEEG_Images\0136.jpg	YN	Right	No	1.18097280012444	0	619380	251
1210.765625	2	health	foodImageDisplay	3	146	26	foodImage.8	FOODEEG_Images\0136.jpg	YN	Right	No	1.18097280012444	0	619913	252
1212.828125	1.18097280012444	health	choicePhaseStart	3	146	26	foodImage.8	FOODEEG_Images\0136.jpg	YN	Right	No	1.18097280012444	0	620969	253
1214	0	health	response	3	146	26	foodImage.8	FOODEEG_Images\0136.jpg	YN	Right	No	1.18097280012444	0	621569	235
1215.04296875	1	taste	trialStart	3	147	27	foodImage.95	FOODEEG_Images\0903.jpg	YN	Right	No	1.18545750016347	0	622103	251
1216.08203125	2	taste	foodImageDisplay	3	147	27	foodImage.95	FOODEEG_Images\0903.jpg	YN	Right	No	1.18545750016347	0	622635	252
1218.14453125	1.18545750016347	taste	choicePhaseStart	3	147	27	foodImage.95	FOODEEG_Images\0903.jpg	YN	Right	No	1.18545750016347	0	623691	253
1219.3203125	0	taste	response	3	147	27	foodImage.95	FOODEEG_Images\0903.jpg	YN	Right	No	1.18545750016347	0	624293	235
1220.359375	1	taste	trialStart	3	148	28	foodImage.15	FOODEEG_Images\0189.jpg	YN	Left	Yes	1.34443700034171	0	624825	251
1221.416015625	2	taste	foodImageDisplay	3	148	28	foodImage.15	FOODEEG_Images\0189.jpg	YN	Left	Yes	1.34443700034171	0	625366	252
1223.48046875	1.34443700034171	taste	choicePhaseStart	3	148	28	foodImage.15	FOODEEG_Images\0189.jpg	YN	Left	Yes	1.34443700034171	0	626423	253
1224.81640625	0	taste	response	3	148	28	foodImage.15	FOODEEG_Images\0189.jpg	YN	Left	Yes	1.34443700034171	0	627107	234
1225.859375	1	decision	trialStart	3	149	29	foodImage.19	FOODEEG_Images\0225.jpg	NY	Right	Yes	1.32096779998392	0	627641	251
1226.904296875	2	decision	foodImageDisplay	3	149	29	foodImage.19	FOODEEG_Images\0225.jpg	NY	Right	Yes	1.32096779998392	0	628176	252
1228.966796875	1.32096779998392	decision	choicePhaseStart	3	149	29	foodImage.19	FOODEEG_Images\0225.jpg	NY	Right	Yes	1.32096779998392	0	629232	253
1230.279296875	0	decision	response	3	149	29	foodImage.19	FOODEEG_Images\0225.jpg	NY	Right	Yes	1.32096779998392	0	629904	235
1231.32421875	1	health	trialStart	3	150	30	foodImage.97	FOODEEG_Images\0905.jpg	NY	Left	No	1.05012089991942	0	630439	251
1232.361328125	2	health	foodImageDisplay	3	150	30	foodImage.97	FOODEEG_Images\0905.jpg	NY	Left	No	1.05012089991942	0	630970	252
1234.423828125	1.05012089991942	health	choicePhaseStart	3	150	30	foodImage.97	FOODEEG_Images\0905.jpg	NY	Left	No	1.05012089991942	0	632026	253
1235.462890625	0	health	response	3	150	30	foodImage.97	FOODEEG_Images\0905.jpg	NY	Left	No	1.05012089991942	0	632558	234
1236.50390625	1	taste	trialStart	3	151	31	foodImage.86	FOODEEG_Images\0844.jpg	NY	Right	Yes	0.930410000029951	0	633091	251
1237.55859375	2	taste	foodImageDisplay	3	151	31	foodImage.86	FOODEEG_Images\0844.jpg	NY	Right	Yes	0.930410000029951	0	633631	252
1239.62109375	0.930410000029951	taste	choicePhaseStart	3	151	31	foodImage.86	FOODEEG_Images\0844.jpg	NY	Right	Yes	0.930410000029951	0	634687	253
1240.54296875	0	taste	response	3	151	31	foodImage.86	FOODEEG_Images\0844.jpg	NY	Right	Yes	0.930410000029951	0	635159	235
1241.583984375	1	taste	trialStart	3	152	32	foodImage.67	FOODEEG_Images\0679.jpg	NY	Right	Yes	1.25001689977944	0	635692	251
1242.638671875	2	taste	foodImageDisplay	3	152	32	foodImage.67	FOODEEG_Images\0679.jpg	NY	Right	Yes	1.25001689977944	0	636232	252
1244.701171875	1.25001689977944	taste	choicePhaseStart	3	152	32	foodImage.67	FOODEEG_Images\0679.jpg	NY	Right	Yes	1.25001689977944	0	637288	253
1245.943359375	0	taste	response	3	152	32	foodImage.67	FOODEEG_Images\0679.jpg	NY	Right	Yes	1.25001689977944	0	637924	235
1246.9921875	1	decision	trialStart	3	153	33	foodImage.96	FOODEEG_Images\0904.jpg	YN	Left	Yes	1.36190580017865	0	638461	251
1248.03125	2	decision	foodImageDisplay	3	153	33	foodImage.96	FOODEEG_Images\0904.jpg	YN	Left	Yes	1.36190580017865	0	638993	252
1250.09375	1.36190580017865	decision	choicePhaseStart	3	153	33	foodImage.96	FOODEEG_Images\0904.jpg	YN	Left	Yes	1.36190580017865	0	640049	253
1251.447265625	0	decision	response	3	153	33	foodImage.96	FOODEEG_Images\0904.jpg	YN	Left	Yes	1.36190580017865	0	640742	234
1252.490234375	1	decision	trialStart	3	154	34	foodImage.81	FOODEEG_Images\0797.jpg	YN	Left	Yes	2.03325149975717	0	641276	251
1253.544921875	2	decision	foodImageDisplay	3	154	34	foodImage.81	FOODEEG_Images\0797.jpg	YN	Left	Yes	2.03325149975717	0	641816	252
1255.607421875	2.03325149975717	decision	choicePhaseStart	3	154	34	foodImage.81	FOODEEG_Images\0797.jpg	YN	Left	Yes	2.03325149975717	0	642872	253
1257.630859375	0	decision	response	3	154	34	foodImage.81	FOODEEG_Images\0797.jpg	YN	Left	Yes	2.03325149975717	0	643908	234
1258.671875	1	health	trialStart	3	155	35	foodImage.78	FOODEEG_Images\0787.jpg	NY	Right	Yes	1.38207989977673	0	644441	251
1259.71484375	2	health	foodImageDisplay	3	155	35	foodImage.78	FOODEEG_Images\0787.jpg	NY	Right	Yes	1.38207989977673	0	644975	252
1261.77734375	1.38207989977673	health	choicePhaseStart	3	155	35	foodImage.78	FOODEEG_Images\0787.jpg	NY	Right	Yes	1.38207989977673	0	646031	253
1263.150390625	0	health	response	3	155	35	foodImage.78	FOODEEG_Images\0787.jpg	NY	Right	Yes	1.38207989977673	0	646734	235
1264.193359375	1	health	trialStart	3	156	36	foodImage.57	FOODEEG_Images\0587.jpg	NY	Left	No	1.15491709997877	0	647268	251
1265.23828125	2	health	foodImageDisplay	3	156	36	foodImage.57	FOODEEG_Images\0587.jpg	NY	Left	No	1.15491709997877	0	647803	252
1267.30078125	1.15491709997877	health	choicePhaseStart	3	156	36	foodImage.57	FOODEEG_Images\0587.jpg	NY	Left	No	1.15491709997877	0	648859	253
1268.4453125	0	health	response	3	156	36	foodImage.57	FOODEEG_Images\0587.jpg	NY	Left	No	1.15491709997877	0	649445	234
1269.48828125	1	health	trialStart	3	157	37	foodImage.74	FOODEEG_Images\0752.jpg	YN	Left	Yes	0.973197199869901	0	649979	251
1270.5390625	2	health	foodImageDisplay	3	157	37	foodImage.74	FOODEEG_Images\0752.jpg	YN	Left	Yes	0.973197199869901	0	650517	252
1272.6015625	0.973197199869901	health	choicePhaseStart	3	157	37	foodImage.74	FOODEEG_Images\0752.jpg	YN	Left	Yes	0.973197199869901	0	651573	253
1273.56640625	0	health	response	3	157	37	foodImage.74	FOODEEG_Images\0752.jpg	YN	Left	Yes	0.973197199869901	0	652067	234
1274.609375	1	health	trialStart	3	158	38	foodImage.71	FOODEEG_Images\0713.jpg	YN	Right	No	1.39539910014719	0	652601	251
1275.65234375	2	health	foodImageDisplay	3	158	38	foodImage.71	FOODEEG_Images\0713.jpg	YN	Right	No	1.39539910014719	0	653135	252
1277.71484375	1.39539910014719	health	choicePhaseStart	3	158	38	foodImage.71	FOODEEG_Images\0713.jpg	YN	Right	No	1.39539910014719	0	654191	253
1279.1015625	0	health	response	3	158	38	foodImage.71	FOODEEG_Images\0713.jpg	YN	Right	No	1.39539910014719	0	654901	235
1280.1484375	1	health	trialStart	3	159	39	foodImage.108	FOODEEG_Images\0916.jpg	YN	Right	No	2.00360530009493	0	655437	251
1281.189453125	2	health	foodImageDisplay	3	159	39	foodImage.108	FOODEEG_Images\0916.jpg	YN	Right	No	2.00360530009493	0	655970	252
1283.251953125	2.00360530009493	health	choicePhaseStart	3	159	39	foodImage.108	FOODEEG_Images\0916.jpg	YN	Right	No	2.00360530009493	0	657026	253
1285.24609375	0	health	response	3	159	39	foodImage.108	FOODEEG_Images\0916.jpg	YN	Right	No	2.00360530009493	0	658047	235
1286.291015625	1	health	trialStart	3	160	40	foodImage.9	FOODEEG_Images\0138.jpg	NY	Left	No	1.18732600007206	0	658582	251
1287.349609375	2	health	foodImageDisplay	3	160	40	foodImage.9	FOODEEG_Images\0138.jpg	NY	Left	No	1.18732600007206	0	659124	252
1289.412109375	1.18732600007206	health	choicePhaseStart	3	160	40	foodImage.9	FOODEEG_Images\0138.jpg	NY	Left	No	1.18732600007206	0	660180	253
1290.58984375	0	health	response	3	160	40	foodImage.9	FOODEEG_Images\0138.jpg	NY	Left	No	1.18732600007206	0	660783	234
1291.630859375	1	decision	trialStart	3	161	41	foodImage.34	FOODEEG_Images\0339.jpg	NY	Right	Yes	0.912357199937105	0	661316	251
1292.6875	2	decision	foodImageDisplay	3	161	41	foodImage.34	FOODEEG_Images\0339.jpg	NY	Right	Yes	0.912357199937105	0	661857	252
1294.75	0.912357199937105	decision	choicePhaseStart	3	161	41	foodImage.34	FOODEEG_Images\0339.jpg	NY	Right	Yes	0.912357199937105	0	662913	253
1295.65234375	0	decision	response	3	161	41	foodImage.34	FOODEEG_Images\0339.jpg	NY	Right	Yes	0.912357199937105	0	663375	235
1296.697265625	1	taste	trialStart	3	162	42	foodImage.52	FOODEEG_Images\0539.jpg	YN	Left	Yes	1.13512140000239	0	663910	251
1297.751953125	2	taste	foodImageDisplay	3	162	42	foodImage.52	FOODEEG_Images\0539.jpg	YN	Left	Yes	1.13512140000239	0	664450	252
1299.814453125	1.13512140000239	taste	choicePhaseStart	3	162	42	foodImage.52	FOODEEG_Images\0539.jpg	YN	Left	Yes	1.13512140000239	0	665506	253
1300.94140625	0	taste	response	3	162	42	foodImage.52	FOODEEG_Images\0539.jpg	YN	Left	Yes	1.13512140000239	0	666083	234
1301.984375	1	decision	trialStart	3	163	43	foodImage.100	FOODEEG_Images\0908.jpg	YN	Right	No	0.878248800057918	0	666617	251
1303.025390625	2	decision	foodImageDisplay	3	163	43	foodImage.100	FOODEEG_Images\0908.jpg	YN	Right	No	0.878248800057918	0	667150	252
1305.087890625	0.878248800057918	decision	choicePhaseStart	3	163	43	foodImage.100	FOODEEG_Images\0908.jpg	YN	Right	No	0.878248800057918	0	668206	253
1305.95703125	0	decision	response	3	163	43	foodImage.100	FOODEEG_Images\0908.jpg	YN	Right	No	0.878248800057918	0	668651	235
1306.998046875	1	decision	trialStart	3	164	44	foodImage.78	FOODEEG_Images\0787.jpg	NY	Right	Yes	0.846058200113475	0	669184	251
1308.041015625	2	decision	foodImageDisplay	3	164	44	foodImage.78	FOODEEG_Images\0787.jpg	NY	Right	Yes	0.846058200113475	0	669718	252
1310.103515625	0.846058200113475	decision	choicePhaseStart	3	164	44	foodImage.78	FOODEEG_Images\0787.jpg	NY	Right	Yes	0.846058200113475	0	670774	253
1310.939453125	0	decision	response	3	164	44	foodImage.78	FOODEEG_Images\0787.jpg	NY	Right	Yes	0.846058200113475	0	671202	235
1311.984375	1	health	trialStart	3	165	45	foodImage.42	FOODEEG_Images\0438.jpg	NY	Right	Yes	0.922185199800879	0	671737	251
1313.068359375	2	health	foodImageDisplay	3	165	45	foodImage.42	FOODEEG_Images\0438.jpg	NY	Right	Yes	0.922185199800879	0	672292	252
1315.130859375	0.922185199800879	health	choicePhaseStart	3	165	45	foodImage.42	FOODEEG_Images\0438.jpg	NY	Right	Yes	0.922185199800879	0	673348	253
1316.044921875	0	health	response	3	165	45	foodImage.42	FOODEEG_Images\0438.jpg	NY	Right	Yes	0.922185199800879	0	673816	235
1317.0859375	1	decision	trialStart	3	166	46	foodImage.56	FOODEEG_Images\0586.jpg	YN	Left	Yes	0.996421899646521	0	674349	251
1318.130859375	2	decision	foodImageDisplay	3	166	46	foodImage.56	FOODEEG_Images\0586.jpg	YN	Left	Yes	0.996421899646521	0	674884	252
1320.193359375	0.996421899646521	decision	choicePhaseStart	3	166	46	foodImage.56	FOODEEG_Images\0586.jpg	YN	Left	Yes	0.996421899646521	0	675940	253
1321.1796875	0	decision	response	3	166	46	foodImage.56	FOODEEG_Images\0586.jpg	YN	Left	Yes	0.996421899646521	0	676445	234
1322.224609375	1	taste	trialStart	3	167	47	foodImage.27	FOODEEG_Images\0263.jpg	YN	Left	Yes	1.13154260022566	0	676980	251
1323.265625	2	taste	foodImageDisplay	3	167	47	foodImage.27	FOODEEG_Images\0263.jpg	YN	Left	Yes	1.13154260022566	0	677513	252
1325.328125	1.13154260022566	taste	choicePhaseStart	3	167	47	foodImage.27	FOODEEG_Images\0263.jpg	YN	Left	Yes	1.13154260022566	0	678569	253
1326.451171875	0	taste	response	3	167	47	foodImage.27	FOODEEG_Images\0263.jpg	YN	Left	Yes	1.13154260022566	0	679144	234
1327.49609375	1	health	trialStart	3	168	48	foodImage.19	FOODEEG_Images\0225.jpg	NY	Right	Yes	1.74029320012778	0	679679	251
1328.537109375	2	health	foodImageDisplay	3	168	48	foodImage.19	FOODEEG_Images\0225.jpg	NY	Right	Yes	1.74029320012778	0	680212	252
1330.599609375	1.74029320012778	health	choicePhaseStart	3	168	48	foodImage.19	FOODEEG_Images\0225.jpg	NY	Right	Yes	1.74029320012778	0	681268	253
1332.33203125	0	health	response	3	168	48	foodImage.19	FOODEEG_Images\0225.jpg	NY	Right	Yes	1.74029320012778	0	682155	235
1333.375	1	decision	trialStart	3	169	49	foodImage.42	FOODEEG_Images\0438.jpg	YN	Left	Yes	1.19410469988361	0	682689	251
1334.458984375	2	decision	foodImageDisplay	3	169	49	foodImage.42	FOODEEG_Images\0438.jpg	YN	Left	Yes	1.19410469988361	0	683244	252
1336.521484375	1.19410469988361	decision	choicePhaseStart	3	169	49	foodImage.42	FOODEEG_Images\0438.jpg	YN	Left	Yes	1.19410469988361	0	684300	253
1337.70703125	0	decision	response	3	169	49	foodImage.42	FOODEEG_Images\0438.jpg	YN	Left	Yes	1.19410469988361	0	684907	234
1338.755859375	1	decision	trialStart	3	170	50	foodImage.23	FOODEEG_Images\0244.jpg	NY	Right	Yes	1.26192500023171	0	685444	251
1339.814453125	2	decision	foodImageDisplay	3	170	50	foodImage.23	FOODEEG_Images\0244.jpg	NY	Right	Yes	1.26192500023171	0	685986	252
1341.87890625	1.26192500023171	decision	choicePhaseStart	3	170	50	foodImage.23	FOODEEG_Images\0244.jpg	NY	Right	Yes	1.26192500023171	0	687043	253
1343.130859375	0	decision	response	3	170	50	foodImage.23	FOODEEG_Images\0244.jpg	NY	Right	Yes	1.26192500023171	0	687684	235
1344.171875	1	taste	trialStart	3	171	51	foodImage.101	FOODEEG_Images\0909.jpg	NY	Left	No	1.17237350018695	0	688217	251
1345.208984375	2	taste	foodImageDisplay	3	171	51	foodImage.101	FOODEEG_Images\0909.jpg	NY	Left	No	1.17237350018695	0	688748	252
1347.271484375	1.17237350018695	taste	choicePhaseStart	3	171	51	foodImage.101	FOODEEG_Images\0909.jpg	NY	Left	No	1.17237350018695	0	689804	253
1348.435546875	0	taste	response	3	171	51	foodImage.101	FOODEEG_Images\0909.jpg	NY	Left	No	1.17237350018695	0	690400	234
1349.478515625	1	health	trialStart	3	172	52	foodImage.17	FOODEEG_Images\0199.jpg	YN	Left	Yes	0.819038600195199	0	690934	251
1350.51953125	2	health	foodImageDisplay	3	172	52	foodImage.17	FOODEEG_Images\0199.jpg	YN	Left	Yes	0.819038600195199	0	691467	252
1352.58203125	0.819038600195199	health	choicePhaseStart	3	172	52	foodImage.17	FOODEEG_Images\0199.jpg	YN	Left	Yes	0.819038600195199	0	692523	253
1353.39453125	0	health	response	3	172	52	foodImage.17	FOODEEG_Images\0199.jpg	YN	Left	Yes	0.819038600195199	0	692939	234
1354.443359375	1	decision	trialStart	3	173	53	foodImage.31	FOODEEG_Images\0294.jpg	NY	Right	Yes	0.742539099883288	0	693476	251
1355.486328125	2	decision	foodImageDisplay	3	173	53	foodImage.31	FOODEEG_Images\0294.jpg	NY	Right	Yes	0.742539099883288	0	694010	252
1357.548828125	0.742539099883288	decision	choicePhaseStart	3	173	53	foodImage.31	FOODEEG_Images\0294.jpg	NY	Right	Yes	0.742539099883288	0	695066	253
1358.283203125	0	decision	response	3	173	53	foodImage.31	FOODEEG_Images\0294.jpg	NY	Right	Yes	0.742539099883288	0	695442	235
1359.32421875	1	decision	trialStart	3	174	54	foodImage.57	FOODEEG_Images\0587.jpg	YN	Left	Yes	0.911330099683255	0	695975	251
1360.365234375	2	decision	foodImageDisplay	3	174	54	foodImage.57	FOODEEG_Images\0587.jpg	YN	Left	Yes	0.911330099683255	0	696508	252
1362.427734375	0.911330099683255	decision	choicePhaseStart	3	174	54	foodImage.57	FOODEEG_Images\0587.jpg	YN	Left	Yes	0.911330099683255	0	697564	253
1363.330078125	0	decision	response	3	174	54	foodImage.57	FOODEEG_Images\0587.jpg	YN	Left	Yes	0.911330099683255	0	698026	234
1364.369140625	1	health	trialStart	3	175	55	foodImage.48	FOODEEG_Images\0494.jpg	YN	Right	No	1.6418616999872	0	698558	251
1365.41015625	2	health	foodImageDisplay	3	175	55	foodImage.48	FOODEEG_Images\0494.jpg	YN	Right	No	1.6418616999872	0	699091	252
1367.47265625	1.6418616999872	health	choicePhaseStart	3	175	55	foodImage.48	FOODEEG_Images\0494.jpg	YN	Right	No	1.6418616999872	0	700147	253
1369.10546875	0	health	response	3	175	55	foodImage.48	FOODEEG_Images\0494.jpg	YN	Right	No	1.6418616999872	0	700983	235
1370.1484375	1	taste	trialStart	3	176	56	foodImage.75	FOODEEG_Images\0763.jpg	NY	Right	Yes	1.02719609998167	0	701517	251
1371.193359375	2	taste	foodImageDisplay	3	176	56	foodImage.75	FOODEEG_Images\0763.jpg	NY	Right	Yes	1.02719609998167	0	702052	252
1373.255859375	1.02719609998167	taste	choicePhaseStart	3	176	56	foodImage.75	FOODEEG_Images\0763.jpg	NY	Right	Yes	1.02719609998167	0	703108	253
1374.2734375	0	taste	response	3	176	56	foodImage.75	FOODEEG_Images\0763.jpg	NY	Right	Yes	1.02719609998167	0	703629	235
1375.31640625	1	health	trialStart	3	177	57	foodImage.61	FOODEEG_Images\0640.jpg	NY	Right	Yes	0.917535400018096	0	704163	251
1376.359375	2	health	foodImageDisplay	3	177	57	foodImage.61	FOODEEG_Images\0640.jpg	NY	Right	Yes	0.917535400018096	0	704697	252
1378.421875	0.917535400018096	health	choicePhaseStart	3	177	57	foodImage.61	FOODEEG_Images\0640.jpg	NY	Right	Yes	0.917535400018096	0	705753	253
1379.330078125	0	health	response	3	177	57	foodImage.61	FOODEEG_Images\0640.jpg	NY	Right	Yes	0.917535400018096	0	706218	235
1380.37109375	1	health	trialStart	3	178	58	foodImage.28	FOODEEG_Images\0273.jpg	YN	Left	Yes	0.74528060015291	0	706751	251
1381.412109375	2	health	foodImageDisplay	3	178	58	foodImage.28	FOODEEG_Images\0273.jpg	YN	Left	Yes	0.74528060015291	0	707284	252
1383.474609375	0.74528060015291	health	choicePhaseStart	3	178	58	foodImage.28	FOODEEG_Images\0273.jpg	YN	Left	Yes	0.74528060015291	0	708340	253
1384.2109375	0	health	response	3	178	58	foodImage.28	FOODEEG_Images\0273.jpg	YN	Left	Yes	0.74528060015291	0	708717	234
1385.255859375	1	decision	trialStart	3	179	59	foodImage.68	FOODEEG_Images\0685.jpg	YN	Left	Yes	0.814304200001061	0	709252	251
1386.333984375	2	decision	foodImageDisplay	3	179	59	foodImage.68	FOODEEG_Images\0685.jpg	YN	Left	Yes	0.814304200001061	0	709804	252
1388.396484375	0.814304200001061	decision	choicePhaseStart	3	179	59	foodImage.68	FOODEEG_Images\0685.jpg	YN	Left	Yes	0.814304200001061	0	710860	253
1389.201171875	0	decision	response	3	179	59	foodImage.68	FOODEEG_Images\0685.jpg	YN	Left	Yes	0.814304200001061	0	711272	234
1390.244140625	1	health	trialStart	3	180	60	foodImage.98	FOODEEG_Images\0906.jpg	NY	Right	Yes	1.01583960000426	0	711806	251
1391.283203125	2	health	foodImageDisplay	3	180	60	foodImage.98	FOODEEG_Images\0906.jpg	NY	Right	Yes	1.01583960000426	0	712338	252
1393.345703125	1.01583960000426	health	choicePhaseStart	3	180	60	foodImage.98	FOODEEG_Images\0906.jpg	NY	Right	Yes	1.01583960000426	0	713394	253
1394.353515625	0	health	response	3	180	60	foodImage.98	FOODEEG_Images\0906.jpg	NY	Right	Yes	1.01583960000426	0	713910	235
1396.396484375	15.685546875	n/a	blockEnd	n/a	n/a	n/a	n/a	n/a	n/a	n/a	n/a	n/a	n/a	714956	254
1412.08203125	2	n/a	blockStart	4	n/a	n/a	n/a	n/a	n/a	n/a	n/a	n/a	n/a	722987	250
1414.115234375	1	taste	trialStart	4	181	1	foodImage.81	FOODEEG_Images\0797.jpg	YN	Left	Yes	0.824065400287509	0	724028	251
1415.173828125	2	taste	foodImageDisplay	4	181	1	foodImage.81	FOODEEG_Images\0797.jpg	YN	Left	Yes	0.824065400287509	0	724570	252
1417.240234375	0.824065400287509	taste	choicePhaseStart	4	181	1	foodImage.81	FOODEEG_Images\0797.jpg	YN	Left	Yes	0.824065400287509	0	725628	253
1418.056640625	0	taste	response	4	181	1	foodImage.81	FOODEEG_Images\0797.jpg	YN	Left	Yes	0.824065400287509	0	726046	234
1419.099609375	1	taste	trialStart	4	182	2	foodImage.9	FOODEEG_Images\0138.jpg	NY	Right	Yes	0.756036799866706	0	726580	251
1420.158203125	2	taste	foodImageDisplay	4	182	2	foodImage.9	FOODEEG_Images\0138.jpg	NY	Right	Yes	0.756036799866706	0	727122	252
1422.220703125	0.756036799866706	taste	choicePhaseStart	4	182	2	foodImage.9	FOODEEG_Images\0138.jpg	NY	Right	Yes	0.756036799866706	0	728178	253
1422.96875	0	taste	response	4	182	2	foodImage.9	FOODEEG_Images\0138.jpg	NY	Right	Yes	0.756036799866706	0	728561	235
1424.0078125	1	health	trialStart	4	183	3	foodImage.83	FOODEEG_Images\0827.jpg	NY	Right	Yes	1.03987050009891	0	729093	251
1425.06640625	2	health	foodImageDisplay	4	183	3	foodImage.83	FOODEEG_Images\0827.jpg	NY	Right	Yes	1.03987050009891	0	729635	252
1427.12890625	1.03987050009891	health	choicePhaseStart	4	183	3	foodImage.83	FOODEEG_Images\0827.jpg	NY	Right	Yes	1.03987050009891	0	730691	253
1428.16015625	0	health	response	4	183	3	foodImage.83	FOODEEG_Images\0827.jpg	NY	Right	Yes	1.03987050009891	0	731219	235
1429.203125	1	decision	trialStart	4	184	4	foodImage.40	FOODEEG_Images\0373.jpg	NY	Right	Yes	1.88385480036959	0	731753	251
1430.24609375	2	decision	foodImageDisplay	4	184	4	foodImage.40	FOODEEG_Images\0373.jpg	NY	Right	Yes	1.88385480036959	0	732287	252
1432.30859375	1.88385480036959	decision	choicePhaseStart	4	184	4	foodImage.40	FOODEEG_Images\0373.jpg	NY	Right	Yes	1.88385480036959	0	733343	253
1434.18359375	0	decision	response	4	184	4	foodImage.40	FOODEEG_Images\0373.jpg	NY	Right	Yes	1.88385480036959	0	734303	235
1435.228515625	1	taste	trialStart	4	185	5	foodImage.1	FOODEEG_Images\0004.jpg	NY	Right	Yes	0.949559700209647	0	734838	251
1436.26953125	2	taste	foodImageDisplay	4	185	5	foodImage.1	FOODEEG_Images\0004.jpg	NY	Right	Yes	0.949559700209647	0	735371	252
1438.33203125	0.949559700209647	taste	choicePhaseStart	4	185	5	foodImage.1	FOODEEG_Images\0004.jpg	NY	Right	Yes	0.949559700209647	0	736427	253
1439.271484375	0	taste	response	4	185	5	foodImage.1	FOODEEG_Images\0004.jpg	NY	Right	Yes	0.949559700209647	0	736908	235
1440.314453125	1	decision	trialStart	4	186	6	foodImage.17	FOODEEG_Images\0199.jpg	NY	Right	Yes	1.02115919999778	0	737442	251
1441.357421875	2	decision	foodImageDisplay	4	186	6	foodImage.17	FOODEEG_Images\0199.jpg	NY	Right	Yes	1.02115919999778	0	737976	252
1443.419921875	1.02115919999778	decision	choicePhaseStart	4	186	6	foodImage.17	FOODEEG_Images\0199.jpg	NY	Right	Yes	1.02115919999778	0	739032	253
1444.431640625	0	decision	response	4	186	6	foodImage.17	FOODEEG_Images\0199.jpg	NY	Right	Yes	1.02115919999778	0	739550	235
1445.47265625	1	health	trialStart	4	187	7	foodImage.72	FOODEEG_Images\0714.jpg	YN	Right	No	1.67758250003681	0	740083	251
1446.515625	2	health	foodImageDisplay	4	187	7	foodImage.72	FOODEEG_Images\0714.jpg	YN	Right	No	1.67758250003681	0	740617	252
1448.578125	1.67758250003681	health	choicePhaseStart	4	187	7	foodImage.72	FOODEEG_Images\0714.jpg	YN	Right	No	1.67758250003681	0	741673	253
1450.24609375	0	health	response	4	187	7	foodImage.72	FOODEEG_Images\0714.jpg	YN	Right	No	1.67758250003681	0	742527	235
1451.291015625	1	decision	trialStart	4	188	8	foodImage.108	FOODEEG_Images\0916.jpg	YN	Right	No	0.87248140014708	0	743062	251
1452.330078125	2	decision	foodImageDisplay	4	188	8	foodImage.108	FOODEEG_Images\0916.jpg	YN	Right	No	0.87248140014708	0	743594	252
1454.392578125	0.87248140014708	decision	choicePhaseStart	4	188	8	foodImage.108	FOODEEG_Images\0916.jpg	YN	Right	No	0.87248140014708	0	744650	253
1455.255859375	0	decision	response	4	188	8	foodImage.108	FOODEEG_Images\0916.jpg	YN	Right	No	0.87248140014708	0	745092	235
1456.298828125	1	taste	trialStart	4	189	9	foodImage.12	FOODEEG_Images\0181.jpg	YN	Left	Yes	0.970985800027847	0	745626	251
1457.341796875	2	taste	foodImageDisplay	4	189	9	foodImage.12	FOODEEG_Images\0181.jpg	YN	Left	Yes	0.970985800027847	0	746160	252
1459.404296875	0.970985800027847	taste	choicePhaseStart	4	189	9	foodImage.12	FOODEEG_Images\0181.jpg	YN	Left	Yes	0.970985800027847	0	747216	253
1460.3671875	0	taste	response	4	189	9	foodImage.12	FOODEEG_Images\0181.jpg	YN	Left	Yes	0.970985800027847	0	747709	234
1461.41015625	1	health	trialStart	4	190	10	foodImage.50	FOODEEG_Images\0529.jpg	NY	Right	Yes	0.905078700277954	0	748243	251
1462.47265625	2	health	foodImageDisplay	4	190	10	foodImage.50	FOODEEG_Images\0529.jpg	NY	Right	Yes	0.905078700277954	0	748787	252
1464.53515625	0.905078700277954	health	choicePhaseStart	4	190	10	foodImage.50	FOODEEG_Images\0529.jpg	NY	Right	Yes	0.905078700277954	0	749843	253
1465.4296875	0	health	response	4	190	10	foodImage.50	FOODEEG_Images\0529.jpg	NY	Right	Yes	0.905078700277954	0	750301	235
1466.474609375	1	taste	trialStart	4	191	11	foodImage.35	FOODEEG_Images\0350.jpg	NY	Right	Yes	1.27759069995955	0	750836	251
1467.53125	2	taste	foodImageDisplay	4	191	11	foodImage.35	FOODEEG_Images\0350.jpg	NY	Right	Yes	1.27759069995955	0	751377	252
1469.59375	1.27759069995955	taste	choicePhaseStart	4	191	11	foodImage.35	FOODEEG_Images\0350.jpg	NY	Right	Yes	1.27759069995955	0	752433	253
1470.86328125	0	taste	response	4	191	11	foodImage.35	FOODEEG_Images\0350.jpg	NY	Right	Yes	1.27759069995955	0	753083	235
1471.90625	1	taste	trialStart	4	192	12	foodImage.21	FOODEEG_Images\0234.jpg	NY	Right	Yes	1.55111029976979	0	753617	251
1472.9609375	2	taste	foodImageDisplay	4	192	12	foodImage.21	FOODEEG_Images\0234.jpg	NY	Right	Yes	1.55111029976979	0	754157	252
1475.0234375	1.55111029976979	taste	choicePhaseStart	4	192	12	foodImage.21	FOODEEG_Images\0234.jpg	NY	Right	Yes	1.55111029976979	0	755213	253
1476.56640625	0	taste	response	4	192	12	foodImage.21	FOODEEG_Images\0234.jpg	NY	Right	Yes	1.55111029976979	0	756003	235
1477.611328125	1	decision	trialStart	4	193	13	foodImage.11	FOODEEG_Images\0180.jpg	NY	Right	Yes	0.811266399919987	0	756538	251
1478.66015625	2	decision	foodImageDisplay	4	193	13	foodImage.11	FOODEEG_Images\0180.jpg	NY	Right	Yes	0.811266399919987	0	757075	252
1480.72265625	0.811266399919987	decision	choicePhaseStart	4	193	13	foodImage.11	FOODEEG_Images\0180.jpg	NY	Right	Yes	0.811266399919987	0	758131	253
1481.525390625	0	decision	response	4	193	13	foodImage.11	FOODEEG_Images\0180.jpg	NY	Right	Yes	0.811266399919987	0	758542	235
1482.568359375	1	decision	trialStart	4	194	14	foodImage.46	FOODEEG_Images\0479.jpg	NY	Right	Yes	0.731603600084782	0	759076	251
1483.626953125	2	decision	foodImageDisplay	4	194	14	foodImage.46	FOODEEG_Images\0479.jpg	NY	Right	Yes	0.731603600084782	0	759618	252
1485.69140625	0.731603600084782	decision	choicePhaseStart	4	194	14	foodImage.46	FOODEEG_Images\0479.jpg	NY	Right	Yes	0.731603600084782	0	760675	253
